{
  "resourceType": "Bundle",
  "id": "6109658e98086b538055b9db",
  "type": "collection",
  "entry": [ {
    "fullUrl": "https://madie.cms.gov/Patient/4ca8189d-0064-457f-af42-9a02e5d0cc97",
    "resource": {
      "resourceType": "Patient",
      "id": "4ca8189d-0064-457f-af42-9a02e5d0cc97",
      "meta": {
        "profile": [ "http://hl7.org/fhir/us/qicore/StructureDefinition/qicore-patient" ]
      },
      "extension": [ {
        "url": "http://hl7.org/fhir/us/core/StructureDefinition/us-core-race",
        "extension": [ {
          "url": "ombCategory",
          "valueCoding": {
            "system": "urn:oid:2.16.840.1.113883.6.238",
            "code": "2028-9",
            "display": "Asian",
            "userSelected": true
          }
        }, {
          "url": "text",
          "valueString": "Asian"
        } ]
      }, {
        "url": "http://hl7.org/fhir/us/core/StructureDefinition/us-core-ethnicity",
        "extension": [ {
          "url": "ombCategory",
          "valueCoding": {
            "system": "urn:oid:2.16.840.1.113883.6.238",
            "code": "2186-5",
            "display": "Not Hispanic or Latino",
            "userSelected": true
          }
        }, {
          "url": "text",
          "valueString": "Not Hispanic or Latino"
        } ]
      } ],
      "identifier": [ {
        "type": {
          "coding": [ {
            "system": "http://terminology.hl7.org/CodeSystem/v2-0203",
            "code": "MR"
          } ]
        },
        "system": "https://GoodHealthCare.com",
        "value": "6109658e98086b538055b9db"
      } ],
      "active": true,
      "name": [ {
        "use": "usual",
        "family": "DENEXCEPPass",
        "given": [ "DiscRatioNotDoneMR" ]
      } ],
      "gender": "male",
      "birthDate": "1982-08-12"
    }
  }, {
    "fullUrl": "http://GoodHealthCare.com/fhir/Condition/5c9a433bb8484623838502b4",
    "resource": {
      "resourceType": "Condition",
      "id": "5c9a433bb8484623838502b4",
      "meta": {
        "profile": [ "http://hl7.org/fhir/us/qicore/StructureDefinition/qicore-condition" ]
      },
      "clinicalStatus": {
        "coding": [ {
          "system": "http://terminology.hl7.org/CodeSystem/condition-clinical",
          "code": "active",
          "display": "active",
          "userSelected": true
        } ]
      },
      "category": [ {
        "coding": [ {
          "system": "http://terminology.hl7.org/CodeSystem/condition-category",
          "code": "encounter-diagnosis",
          "display": "Encounter Diagnosis",
          "userSelected": true
        } ]
      } ],
      "code": {
        "coding": [ {
          "system": "http://hl7.org/fhir/sid/icd-10-cm",
          "code": "H40.10X0"
        } ]
      },
      "subject": {
        "reference": "Patient/4ca8189d-0064-457f-af42-9a02e5d0cc97"
      },
      "onsetDateTime": "2012-08-27T13:00:00+00:00"
    }
  }, {
    "fullUrl": "http://GoodHealthCare.com/fhir/Observation/5c9a433bb8484623838502b6",
    "resource": {
      "resourceType": "Observation",
      "id": "5c9a433bb8484623838502b6",
      "meta": {
        "profile": [ "http://hl7.org/fhir/us/qicore/StructureDefinition/qicore-observation" ]
      },
      "status": "final",
      "category": [ {
        "coding": [ {
          "system": "http://terminology.hl7.org/CodeSystem/observation-category",
          "code": "laboratory",
          "display": "Laboratory",
          "userSelected": true
        } ]
      } ],
      "code": {
        "coding": [ {
          "system": "http://loinc.org",
          "code": "71487-3"
        } ]
      },
      "subject": {
        "reference": "Patient/4ca8189d-0064-457f-af42-9a02e5d0cc97"
      },
      "effectivePeriod": {
        "start": "2024-08-27T13:00:00.000+00:00",
        "end": "2024-08-27T13:15:00.000+00:00"
      },
      "valueString": "Documented, progressive thinning of the neuroretinal rim with an associated increase in cupping of the optic disc"
    }
  }, {
    "fullUrl": "http://GoodHealthCare.com/fhir/Observation/5c9a433bb8484623838502b8",
    "resource": {
      "resourceType": "Observation",
      "id": "5c9a433bb8484623838502b8",
      "meta": {
        "profile": [ "http://hl7.org/fhir/us/qicore/StructureDefinition/qicore-observationnotdone" ]
      },
      "extension": [ {
        "url": "http://hl7.org/fhir/us/qicore/StructureDefinition/qicore-notDoneReason",
        "valueCodeableConcept": {
          "coding": [ {
            "system": "http://snomed.info/sct",
            "version": "http://snomed.info/sct/731000124108/version/202303",
            "code": "410536001",
            "display": "Contraindicated (qualifier value)"
          } ]
        }
      } ],
      "status": "cancelled",
      "category": [ {
        "coding": [ {
          "system": "http://snomed.info/sct",
          "version": "http://snomed.info/sct/731000124108/version/202303",
          "code": "428119001",
          "display": "Procedure not indicated (situation)",
          "userSelected": true
        } ]
      } ],
      "code": {
        "coding": [ {
          "system": "http://loinc.org",
          "version": "2.73",
          "code": "71487-3"
        } ]
      },
      "subject": {
        "reference": "Patient/4ca8189d-0064-457f-af42-9a02e5d0cc97"
      },
      "effectiveDateTime": "2024-08-27T13:00:00.000+00:00",
      "issued": "2024-08-27T13:00:00.000+00:00"
    }
  }, {
    "fullUrl": "http://GoodHealthCare.com/fhir/Encounter/5c9a433bb8484623838502b5",
    "resource": {
      "resourceType": "Encounter",
      "id": "5c9a433bb8484623838502b5",
      "meta": {
        "profile": [ "http://hl7.org/fhir/us/qicore/StructureDefinition/qicore-encounter" ]
      },
      "status": "finished",
      "class": {
        "system": "http://terminology.hl7.org/CodeSystem/v3-ActCode",
        "code": "AMB",
        "display": "ambulatory",
        "userSelected": true
      },
      "type": [ {
        "coding": [ {
          "system": "http://www.ama-assn.org/go/cpt",
          "code": "92002"
        } ]
      } ],
      "subject": {
        "reference": "Patient/4ca8189d-0064-457f-af42-9a02e5d0cc97"
      },
      "period": {
        "start": "2024-08-27T12:40:00.000+00:00",
        "end": "2024-08-27T13:40:00.000+00:00"
      },
      "length": {
        "value": 0.0,
        "unit": "days"
      }
    }
  }, {
    "fullUrl": "https://madie.cms.gov/MeasureReport/6467cfd1be9def4e0b01b11a/4ca8189d-0064-457f-af42-9a02e5d0cc97",
    "resource": {
      "resourceType": "MeasureReport",
      "id": "00cd8308-d7b1-4716-bebb-20f5213ce21b",
      "meta": {
        "profile": [ "http://hl7.org/fhir/us/cqfmeasures/StructureDefinition/test-case-cqfm" ]
      },
      "contained": [ {
        "resourceType": "Parameters",
        "id": "DiscRatioNotDoneMR-parameters",
        "parameter": [ {
          "name": "subject",
          "valueString": "4ca8189d-0064-457f-af42-9a02e5d0cc97"
        } ]
      } ],
      "extension": [ {
        "url": "http://hl7.org/fhir/us/cqfmeasures/StructureDefinition/cqfm-inputParameters",
        "valueReference": {
          "reference": "#DiscRatioNotDoneMR-parameters"
        }
      }, {
        "url": "http://hl7.org/fhir/us/cqfmeasures/StructureDefinition/cqfm-testCaseDescription",
        "valueMarkdown": "Patient with glaucoma, optic disc exam done but cup to disc ratio not performed due to medical reason documented and issued within associated Encounter period."
      } ],
      "modifierExtension": [ {
        "url": "http://hl7.org/fhir/us/cqfmeasures/StructureDefinition/cqfm-isTestCase",
        "valueBoolean": true
      } ],
      "status": "complete",
      "type": "individual",
      "measure": "http://ecqi.healthit.gov/ecqms/Measure/POAGOpticNerveEvaluationFHIR",
      "period": {
        "start": "2024-01-01",
        "end": "2024-12-31"
      },
      "group": [ {
        "population": [ {
          "code": {
            "coding": [ {
              "system": "http://terminology.hl7.org/CodeSystem/measure-population",
              "code": "initial-population",
              "display": "Initial Population"
            } ]
          },
          "count": 1
        }, {
          "code": {
            "coding": [ {
              "system": "http://terminology.hl7.org/CodeSystem/measure-population",
              "code": "denominator",
              "display": "Denominator"
            } ]
          },
          "count": 1
        }, {
          "code": {
            "coding": [ {
              "system": "http://terminology.hl7.org/CodeSystem/measure-population",
              "code": "denominator-exception",
              "display": "Denominator Exception"
            } ]
          },
          "count": 1
        }, {
          "code": {
            "coding": [ {
              "system": "http://terminology.hl7.org/CodeSystem/measure-population",
              "code": "numerator",
              "display": "Numerator"
            } ]
          },
          "count": 0
        } ]
      } ],
      "evaluatedResource": [ {
        "reference": "https://madie.cms.gov/Patient/4ca8189d-0064-457f-af42-9a02e5d0cc97"
      }, {
        "reference": "http://GoodHealthCare.com/fhir/Condition/5c9a433bb8484623838502b4"
      }, {
        "reference": "http://GoodHealthCare.com/fhir/Observation/5c9a433bb8484623838502b6"
      }, {
        "reference": "http://GoodHealthCare.com/fhir/Observation/5c9a433bb8484623838502b8"
      }, {
        "reference": "http://GoodHealthCare.com/fhir/Encounter/5c9a433bb8484623838502b5"
      } ]
    }
  } ]
}