{"resourceType":"Bundle","id":"tests-4522a65f-c841-46e3-8220-87aae0b950e3-bundle","type":"transaction","entry":[{"resource":{"resourceType":"Bundle","id":"634f0f710be7d10d1023e2e4","type":"collection","entry":[{"fullUrl":"https://madie.cms.gov/Patient/4522a65f-c841-46e3-8220-87aae0b950e3","resource":{"resourceType":"Patient","id":"4522a65f-c841-46e3-8220-87aae0b950e3","meta":{"profile":["http://hl7.org/fhir/us/qicore/StructureDefinition/qicore-patient"]},"extension":[{"url":"http://hl7.org/fhir/us/core/StructureDefinition/us-core-race","extension":[{"url":"ombCategory","valueCoding":{"system":"urn:oid:2.16.840.1.113883.6.238","code":"1002-5","display":"American Indian or Alaska Native","userSelected":true}},{"url":"text","valueString":"American Indian or Alaska Native"}]},{"url":"http://hl7.org/fhir/us/core/StructureDefinition/us-core-ethnicity","extension":[{"url":"ombCategory","valueCoding":{"system":"urn:oid:2.16.840.1.113883.6.238","code":"2135-2","display":"Hispanic or Latino","userSelected":true}},{"url":"text","valueString":"Hispanic or Latino"}]}],"identifier":[{"type":{"coding":[{"system":"http://terminology.hl7.org/CodeSystem/v2-0203","code":"MR"}]},"system":"https://bonnie-fhir.healthit.gov/","value":"634f0f710be7d10d1023e2e4"}],"name":[{"family":"IPPass","given":["DelProcStart_EncEndPlus1Minute"]}],"gender":"female","birthDate":"2004-01-31"}},{"fullUrl":"https://madie.cms.gov/Encounter/encounter-inpatient-e2e5","resource":{"resourceType":"Encounter","id":"encounter-inpatient-e2e5","meta":{"profile":["http://hl7.org/fhir/us/qicore/StructureDefinition/qicore-encounter"]},"status":"finished","class":{"system":"http://terminology.hl7.org/CodeSystem/v3-ActCode","code":"IMP","display":"inpatient encounter"},"type":[{"coding":[{"system":"http://snomed.info/sct","version":"2022-09","code":"183452005","display":"Emergency hospital admission (procedure)","userSelected":true}]}],"subject":{"reference":"Patient/4522a65f-c841-46e3-8220-87aae0b950e3"},"period":{"start":"2024-02-01T08:00:00.000+00:00","end":"2024-02-05T08:15:00.000+00:00"}}},{"fullUrl":"https://madie.cms.gov/Procedure/delivery-procedures-e2e6","resource":{"resourceType":"Procedure","id":"delivery-procedures-e2e6","meta":{"profile":["http://hl7.org/fhir/us/qicore/StructureDefinition/qicore-procedure"]},"extension":[{"url":"http://hl7.org/fhir/us/qicore/StructureDefinition/qicore-recorded","valueDateTime":"2013-04-05T09:35:00-04:00"}],"status":"completed","code":{"coding":[{"system":"http://snomed.info/sct","code":"177168003","userSelected":true}]},"subject":{"reference":"Patient/4522a65f-c841-46e3-8220-87aae0b950e3"},"performedDateTime":"2024-02-05T08:16:00.000+00:00"}},{"fullUrl":"https://madie.cms.gov/Coverage/1","resource":{"resourceType":"Coverage","id":"1","meta":{"profile":["http://hl7.org/fhir/us/qicore/StructureDefinition/qicore-coverage"]},"status":"active","beneficiary":{"reference":"Patient/4522a65f-c841-46e3-8220-87aae0b950e3"},"payor":[{"reference":"Organization/123456"}]}},{"fullUrl":"https://madie.cms.gov/Organization/123456","resource":{"resourceType":"Organization","id":"123456","meta":{"profile":["http://hl7.org/fhir/us/qicore/StructureDefinition/qicore-organization"]},"identifier":[{"use":"temp","system":"urn:oid:2.16.840.1.113883.4.4","value":"21-3259825"}],"active":true,"type":[{"coding":[{"system":"http://terminology.hl7.org/CodeSystem/organization-type","code":"pay","display":"Payer"}]}],"name":"Blue Cross Blue Shield of Texas","telecom":[{"system":"phone","value":"(+1) 972-766-6900"}],"address":[{"use":"billing","type":"postal","line":["P.O. Box 660044"],"city":"Dallas","state":"TX","postalCode":"75266-0044","country":"USA"}]}},{"fullUrl":"https://madie.cms.gov/Practitioner/practitioner-123456","resource":{"resourceType":"Practitioner","id":"practitioner-123456","identifier":[{"system":"http://hl7.org/fhir/sid/us-npi","value":"123456"}],"name":[{"family":"Evil","prefix":["Dr"]}]}},{"fullUrl":"https://madie.cms.gov/MeasureReport/638907ab4ba3d47c885c02fe/4522a65f-c841-46e3-8220-87aae0b950e3","resource":{"resourceType":"MeasureReport","id":"7cade9ac-35bb-4349-a940-c582de946695","meta":{"profile":["http://hl7.org/fhir/us/cqfmeasures/StructureDefinition/test-case-cqfm"]},"contained":[{"resourceType":"Parameters","id":"DelProcStartEncEndPlus1Minute-parameters","parameter":[{"name":"subject","valueString":"4522a65f-c841-46e3-8220-87aae0b950e3"}]}],"extension":[{"url":"http://hl7.org/fhir/us/cqfmeasures/StructureDefinition/cqfm-inputParameters","valueReference":{"reference":"#DelProcStartEncEndPlus1Minute-parameters"}},{"url":"http://hl7.org/fhir/us/cqfmeasures/StructureDefinition/cqfm-testCaseDescription","valueMarkdown":"Delivery procedure start equals encounter end plus one minute.   Passes due to \"day of\" logic which was added back in on 6/7/21.\n"}],"modifierExtension":[{"url":"http://hl7.org/fhir/us/cqfmeasures/StructureDefinition/cqfm-isTestCase","valueBoolean":true}],"status":"complete","type":"individual","measure":"http://ecqi.healthit.gov/ecqms/Measure/SevereObstetricComplicationsFHIR","period":{"start":"2024-01-01","end":"2024-12-31"},"group":[{"population":[{"code":{"coding":[{"system":"http://terminology.hl7.org/CodeSystem/measure-population","code":"initial-population","display":"Initial Population"}]},"count":1},{"code":{"coding":[{"system":"http://terminology.hl7.org/CodeSystem/measure-population","code":"denominator","display":"Denominator"}]},"count":0},{"code":{"coding":[{"system":"http://terminology.hl7.org/CodeSystem/measure-population","code":"denominator-exclusion","display":"Denominator Exclusion"}]},"count":0},{"code":{"coding":[{"system":"http://terminology.hl7.org/CodeSystem/measure-population","code":"numerator","display":"Numerator"}]},"count":0}]}],"evaluatedResource":[{"reference":"https://madie.cms.gov/Patient/4522a65f-c841-46e3-8220-87aae0b950e3"},{"reference":"https://madie.cms.gov/Encounter/encounter-inpatient-e2e5"},{"reference":"https://madie.cms.gov/Procedure/delivery-procedures-e2e6"},{"reference":"https://madie.cms.gov/Coverage/1"},{"reference":"https://madie.cms.gov/Organization/123456"},{"reference":"https://madie.cms.gov/Practitioner/practitioner-123456"}]}}]},"request":{"method":"PUT","url":"Bundle/634f0f710be7d10d1023e2e4"}}]}