{"resourceType":"Bundle","id":"tests-numer-neg-EXM144v11QICore4-bundle","type":"transaction","entry":[{"resource":{"resourceType":"Condition","id":"numer-neg-EXM144v11QICore4-3","meta":{"profile":["http://hl7.org/fhir/us/qicore/StructureDefinition/qicore-condition"]},"clinicalStatus":{"coding":[{"system":"http://terminology.hl7.org/CodeSystem/condition-clinical","code":"active"}]},"verificationStatus":{"coding":[{"system":"http://terminology.hl7.org/CodeSystem/condition-ver-status","code":"confirmed"}]},"category":[{"coding":[{"system":"http://terminology.hl7.org/CodeSystem/condition-category","code":"encounter-diagnosis","display":"Encounter Diagnosis"}]}],"severity":{"coding":[{"system":"http://snomed.info/sct","code":"24484000","display":"Severe (severity modifier)"}]},"code":{"coding":[{"system":"http://hl7.org/fhir/sid/icd-10-cm","code":"I11.0","display":"Hypertensive heart disease with heart failure"}]},"subject":{"reference":"Patient/numer-neg-EXM144v11QICore4"},"onsetDateTime":"2020-11-01"},"request":{"method":"PUT","url":"Condition/numer-neg-EXM144v11QICore4-3"}},{"resource":{"resourceType":"Encounter","id":"numer-neg-EXM144v11QICore4-1","meta":{"profile":["http://hl7.org/fhir/us/qicore/StructureDefinition/qicore-encounter"]},"status":"finished","class":{"system":"http://terminology.hl7.org/CodeSystem/v3-ActCode","code":"AMB","display":"ambulatory"},"type":[{"coding":[{"system":"http://www.ama-assn.org/go/cpt","code":"99201","display":"Office or other outpatient visit for the evaluation and management of a new patient, which requires these 3 key components: A problem focused history; A problem focused examination; Straightforward medical decision making. Counseling and/or coordination of care with other physicians, other qualified health care professionals, or agencies are provided consistent with the nature of the problem(s) and the patient's and/or family's needs. Usually, the presenting problem(s) are self limited or minor. Typically, 10 minutes are spent face-to-face with the patient and/or family."}]}],"subject":{"reference":"Patient/numer-neg-EXM144v11QICore4"},"period":{"start":"2022-01-02T10:00:00.000Z","end":"2022-01-02T10:30:00.000Z"}},"request":{"method":"PUT","url":"Encounter/numer-neg-EXM144v11QICore4-1"}},{"resource":{"resourceType":"Encounter","id":"numer-neg-EXM144v11QICore4-2","meta":{"profile":["http://hl7.org/fhir/us/qicore/StructureDefinition/qicore-encounter"]},"status":"finished","class":{"system":"http://terminology.hl7.org/CodeSystem/v3-ActCode","code":"AMB","display":"ambulatory"},"type":[{"coding":[{"system":"http://www.ama-assn.org/go/cpt","code":"99201","display":"Office or other outpatient visit for the evaluation and management of a new patient, which requires these 3 key components: A problem focused history; A problem focused examination; Straightforward medical decision making. Counseling and/or coordination of care with other physicians, other qualified health care professionals, or agencies are provided consistent with the nature of the problem(s) and the patient's and/or family's needs. Usually, the presenting problem(s) are self limited or minor. Typically, 10 minutes are spent face-to-face with the patient and/or family."}]}],"subject":{"reference":"Patient/numer-neg-EXM144v11QICore4"},"period":{"start":"2022-03-02T10:00:00.000Z","end":"2022-03-02T10:30:00.000Z"}},"request":{"method":"PUT","url":"Encounter/numer-neg-EXM144v11QICore4-2"}},{"resource":{"resourceType":"Encounter","id":"numer-neg-EXM144v11QICore4-6","meta":{"profile":["http://hl7.org/fhir/us/qicore/StructureDefinition/qicore-encounter"]},"status":"finished","class":{"system":"http://terminology.hl7.org/CodeSystem/v3-ActCode","code":"AMB","display":"ambulatory"},"type":[{"coding":[{"system":"http://www.ama-assn.org/go/cpt","code":"99201","display":"Office or other outpatient visit for the evaluation and management of a new patient, which requires these 3 key components: A problem focused history; A problem focused examination; Straightforward medical decision making. Counseling and/or coordination of care with other physicians, other qualified health care professionals, or agencies are provided consistent with the nature of the problem(s) and the patient's and/or family's needs. Usually, the presenting problem(s) are self limited or minor. Typically, 10 minutes are spent face-to-face with the patient and/or family."}]}],"subject":{"reference":"Patient/numer-neg-EXM144v11QICore4"},"period":{"start":"2021-03-02T10:00:00.000Z","end":"2021-03-02T10:30:00.000Z"}},"request":{"method":"PUT","url":"Encounter/numer-neg-EXM144v11QICore4-6"}},{"resource":{"resourceType":"MedicationRequest","id":"numer-neg-EXM144v11QICore4-5","meta":{"profile":["http://hl7.org/fhir/us/qicore/StructureDefinition/qicore-medicationrequest"]},"status":"active","intent":"order","medicationCodeableConcept":{"coding":[{"system":"http://www.nlm.nih.gov/research/umls/rxnorm","code":"860516","display":"24 HR carvedilol phosphate 20 MG Extended Release Oral Capsule"}]},"subject":{"reference":"Patient/numer-neg-EXM144v11QICore4","display":"Betty Dunn"},"encounter":{"reference":"Encounter/numer-neg-EXM144v11QICore4-6","display":"encounter who leads to this prescription"},"authoredOn":"2021-03-02T10:15:00.000Z","note":[{"text":"Patient told to take with food"}],"dosageInstruction":[{"sequence":1,"text":"One tablet daily for 10 days starting on March 3, 2022","additionalInstruction":[{"coding":[{"system":"http://snomed.info/sct","code":"769557005","display":"With meals"}]}],"timing":{"repeat":{"boundsPeriod":{"start":"2021-03-03","end":"2021-03-12"},"frequency":1,"period":1,"periodUnit":"d"}},"route":{"coding":[{"system":"http://snomed.info/sct","code":"26643006","display":"Oral Route"}]},"method":{"coding":[{"system":"http://snomed.info/sct","code":"421521009","display":"Swallow - dosing instruction imperative (qualifier value)"}]},"doseAndRate":[{"type":{"coding":[{"system":"http://terminology.hl7.org/CodeSystem/dose-rate-type","code":"ordered","display":"Ordered"}]},"doseQuantity":{"value":1,"unit":"TAB","system":"http://terminology.hl7.org/CodeSystem/v3-orderableDrugForm","code":"TAB"}}]},{"sequence":2,"text":"If tolerated, take 2 pills once a day starting March 13, 2022 for 10 days","additionalInstruction":[{"coding":[{"system":"http://snomed.info/sct","code":"769557005","display":"With meals"}]}],"timing":{"repeat":{"boundsPeriod":{"start":"2021-03-13","end":"2021-03-22"},"frequency":1,"period":1,"periodUnit":"d"}},"route":{"coding":[{"system":"http://snomed.info/sct","code":"26643006","display":"Oral Route"}]},"doseAndRate":[{"type":{"coding":[{"system":"http://terminology.hl7.org/CodeSystem/dose-rate-type","code":"ordered","display":"Ordered"}]},"doseQuantity":{"value":2,"unit":"TAB","system":"http://terminology.hl7.org/CodeSystem/v3-orderableDrugForm","code":"TAB"}}]},{"sequence":3,"text":"If tolerated, take 4 pills once a day from thereon starting March 23, 2022. At end, re-evaluate.","additionalInstruction":[{"coding":[{"system":"http://snomed.info/sct","code":"769557005","display":"With meals"}]}],"timing":{"repeat":{"boundsPeriod":{"start":"2021-03-23","end":"2021-04-02"},"frequency":1,"period":1,"periodUnit":"d"}},"route":{"coding":[{"system":"http://snomed.info/sct","code":"26643006","display":"Oral Route"}]},"doseAndRate":[{"type":{"coding":[{"system":"http://terminology.hl7.org/CodeSystem/dose-rate-type","code":"ordered","display":"Ordered"}]},"doseQuantity":{"value":4,"unit":"TAB","system":"http://terminology.hl7.org/CodeSystem/v3-orderableDrugForm","code":"TAB"}}]}],"dispenseRequest":{"validityPeriod":{"start":"2021-03-02","end":"2022-03-02"},"numberOfRepeatsAllowed":0,"quantity":{"value":70,"unit":"TAB","system":"http://terminology.hl7.org/CodeSystem/v3-orderableDrugForm","code":"TAB"},"expectedSupplyDuration":{"value":30,"unit":"days","system":"http://unitsofmeasure.org","code":"d"}},"substitution":{"allowedBoolean":true,"reason":{"coding":[{"system":"http://terminology.hl7.org/CodeSystem/v3-ActReason","code":"FP","display":"formulary policy"}]}}},"request":{"method":"PUT","url":"MedicationRequest/numer-neg-EXM144v11QICore4-5"}},{"resource":{"resourceType":"Observation","id":"numer-neg-EXM144v11QICore4-4","meta":{"profile":["http://hl7.org/fhir/us/qicore/StructureDefinition/qicore-observation"]},"status":"final","category":[{"coding":[{"system":"http://terminology.hl7.org/CodeSystem/observation-category","code":"imaging","display":"Imaging"}]}],"code":{"coding":[{"system":"http://loinc.org","code":"10230-1","display":"Left ventricular Ejection fraction"}]},"subject":{"reference":"Patient/numer-neg-EXM144v11QICore4"},"effectiveDateTime":"2020-11-01T10:30:00.000Z","issued":"2020-11-01T10:30:00.000Z","valueQuantity":{"value":40.0,"unit":"%","system":"http://unitsofmeasure.org","code":"%"},"interpretation":[{"coding":[{"system":"http://terminology.hl7.org/CodeSystem/v3-ObservationInterpretation","code":"L","display":"Low"}],"text":"Low"}]},"request":{"method":"PUT","url":"Observation/numer-neg-EXM144v11QICore4-4"}},{"resource":{"resourceType":"Patient","id":"numer-neg-EXM144v11QICore4","meta":{"profile":["http://hl7.org/fhir/us/qicore/StructureDefinition/qicore-patient"]},"extension":[{"url":"http://hl7.org/fhir/us/core/StructureDefinition/us-core-race","extension":[{"url":"ombCategory","valueCoding":{"system":"urn:oid:2.16.840.1.113883.6.238","code":"2028-9","display":"Asian"}},{"url":"text","valueString":"Asian"}]},{"url":"http://hl7.org/fhir/us/core/StructureDefinition/us-core-ethnicity","extension":[{"url":"ombCategory","valueCoding":{"system":"urn:oid:2.16.840.1.113883.6.238","code":"2135-2","display":"Hispanic or Latino"}},{"url":"text","valueString":"Hispanic or Latino"}]}],"identifier":[{"use":"usual","type":{"coding":[{"system":"http://terminology.hl7.org/CodeSystem/v2-0203","code":"MR","display":"Medical Record Number"}]},"system":"http://hospital.smarthealthit.org","value":"685945948"}],"name":[{"family":"Dunn","given":["Betty"]}],"gender":"female","birthDate":"1978-01-01"},"request":{"method":"PUT","url":"Patient/numer-neg-EXM144v11QICore4"}}]}