{"resourceType":"Bundle","id":"tests-8c92fb37-ab34-49e1-b642-891b673e862a-bundle","type":"transaction","entry":[{"resource":{"resourceType":"Bundle","id":"642710c678c9438489949adb","type":"collection","entry":[{"fullUrl":"https://madie.cms.gov/Patient/8c92fb37-ab34-49e1-b642-891b673e862a","resource":{"resourceType":"Patient","id":"8c92fb37-ab34-49e1-b642-891b673e862a","meta":{"profile":["http://hl7.org/fhir/us/qicore/StructureDefinition/qicore-patient"]},"extension":[{"url":"http://hl7.org/fhir/us/core/StructureDefinition/us-core-race","extension":[{"url":"ombCategory","valueCoding":{"system":"urn:oid:2.16.840.1.113883.6.238","code":"2028-9","display":"Asian","userSelected":true}},{"url":"text","valueString":"Asian"}]},{"url":"http://hl7.org/fhir/us/core/StructureDefinition/us-core-ethnicity","extension":[{"url":"ombCategory","valueCoding":{"system":"urn:oid:2.16.840.1.113883.6.238","code":"2186-5","display":"Not Hispanic or Latino","userSelected":true}},{"url":"text","valueString":"Not Hispanic or Latino"}]}],"identifier":[{"type":{"coding":[{"system":"http://terminology.hl7.org/CodeSystem/v2-0203","code":"MR"}]},"system":"https://bonnie-fhir.healthit.gov/","value":"642710c678c9438489949adb"}],"name":[{"family":"2IPFail","given":["EncounterandDxinMPMissingSecondEnc"]}],"gender":"male","birthDate":"1990-01-02"}},{"fullUrl":"http://GoodHealthCare.com/fhir/Condition/2300003203","resource":{"resourceType":"Condition","id":"2300003203","meta":{"profile":["http://hl7.org/fhir/us/qicore/StructureDefinition/qicore-condition"]},"clinicalStatus":{"coding":[{"system":"http://terminology.hl7.org/CodeSystem/condition-clinical","code":"active","display":"Active","userSelected":true}]},"verificationStatus":{"coding":[{"system":"http://terminology.hl7.org/CodeSystem/condition-ver-status","code":"confirmed","display":"Confirmed","userSelected":true}]},"category":[{"coding":[{"system":"http://terminology.hl7.org/CodeSystem/condition-category","code":"encounter-diagnosis","display":"Encounter Diagnosis","userSelected":true}]}],"code":{"coding":[{"system":"http://hl7.org/fhir/sid/icd-10-cm","version":"2023","code":"G31.83","userSelected":true}]},"subject":{"reference":"Patient/8c92fb37-ab34-49e1-b642-891b673e862a"},"onsetPeriod":{"start":"2023-12-31T08:00:00.000+00:00"}}},{"fullUrl":"http://GoodHealthCare.com/fhir/Encounter/2300003204","resource":{"resourceType":"Encounter","id":"23000032014","meta":{"profile":["http://hl7.org/fhir/us/qicore/StructureDefinition/qicore-encounter"]},"status":"finished","class":{"system":"http://terminology.hl7.org/CodeSystem/v3-ActCode","code":"AMB","display":"ambulatory","userSelected":true},"type":[{"coding":[{"system":"http://www.ama-assn.org/go/cpt","version":"2023","code":"99212","userSelected":true}]}],"subject":{"reference":"Patient/8c92fb37-ab34-49e1-b642-891b673e862a"},"period":{"start":"2024-03-31T08:00:00.000+00:00","end":"2024-03-31T08:35:00.000+00:00"}}},{"fullUrl":"http://GoodHealthCare.com/fhir/Coverage/2300003209","resource":{"resourceType":"Coverage","id":"2300003209","meta":{"profile":["http://hl7.org/fhir/us/qicore/StructureDefinition/qicore-coverage"]},"status":"active","beneficiary":{"reference":"Patient/8c92fb37-ab34-49e1-b642-891b673e862a"},"payor":[{"reference":"Organization/123456"}]}},{"fullUrl":"http://GoodHealthCare.com/fhir/Organization/123456","resource":{"resourceType":"Organization","id":"123456","meta":{"profile":["http://hl7.org/fhir/us/qicore/StructureDefinition/qicore-organization"]},"identifier":[{"use":"temp","system":"urn:oid:2.16.840.1.113883.4.4","value":"21-3259825"}],"active":true,"type":[{"coding":[{"system":"http://terminology.hl7.org/CodeSystem/organization-type","code":"pay","display":"Payer"}]}],"name":"Blue Cross Blue Shield of Texas","telecom":[{"system":"phone","value":"(+1) 972-766-6900"}],"address":[{"use":"billing","type":"postal","line":["P.O. Box 660044"],"city":"Dallas","state":"TX","postalCode":"75266-0044","country":"USA"}]}},{"fullUrl":"http://GoodHealthCare.com/fhir/Practitioner/2300003210","resource":{"resourceType":"Practitioner","id":"2300003210","identifier":[{"system":"http://hl7.org/fhir/sid/us-npi","value":"123456"}],"name":[{"family":"Evil","prefix":["Dr"]}]}},{"fullUrl":"https://madie.cms.gov/MeasureReport/64758fe7be9def4e0b01b192/8c92fb37-ab34-49e1-b642-891b673e862a","resource":{"resourceType":"MeasureReport","id":"e904f056-ccb7-4162-839e-aad37a493afe","meta":{"profile":["http://hl7.org/fhir/us/cqfmeasures/StructureDefinition/test-case-cqfm"]},"contained":[{"resourceType":"Parameters","id":"EncounterandDxinMPMissingSecondEnc-parameters","parameter":[{"name":"subject","valueString":"8c92fb37-ab34-49e1-b642-891b673e862a"}]}],"extension":[{"url":"http://hl7.org/fhir/us/cqfmeasures/StructureDefinition/cqfm-inputParameters","valueReference":{"reference":"#EncounterandDxinMPMissingSecondEnc-parameters"}},{"url":"http://hl7.org/fhir/us/cqfmeasures/StructureDefinition/cqfm-testCaseDescription","valueMarkdown":"Does not meet Initial Population Requirements due to missing second visit and missing demential diagnosis"}],"modifierExtension":[{"url":"http://hl7.org/fhir/us/cqfmeasures/StructureDefinition/cqfm-isTestCase","valueBoolean":true}],"status":"complete","type":"individual","measure":"http://ecqi.healthit.gov/ecqms/Measure/DementiaCognitiveAssessmentFHIR","period":{"start":"2024-01-01","end":"2024-12-31"},"group":[{"population":[{"code":{"coding":[{"system":"http://terminology.hl7.org/CodeSystem/measure-population","code":"initial-population","display":"Initial Population"}]},"count":0},{"code":{"coding":[{"system":"http://terminology.hl7.org/CodeSystem/measure-population","code":"denominator","display":"Denominator"}]},"count":0},{"code":{"coding":[{"system":"http://terminology.hl7.org/CodeSystem/measure-population","code":"numerator","display":"Numerator"}]},"count":0},{"code":{"coding":[{"system":"http://terminology.hl7.org/CodeSystem/measure-population","code":"denominator-exception","display":"Denominator Exception"}]},"count":0}]}],"evaluatedResource":[{"reference":"https://madie.cms.gov/Patient/8c92fb37-ab34-49e1-b642-891b673e862a"},{"reference":"http://GoodHealthCare.com/fhir/Condition/2300003203"},{"reference":"Encounter/23000032014"},{"reference":"http://GoodHealthCare.com/fhir/Coverage/2300003209"},{"reference":"http://GoodHealthCare.com/fhir/Organization/123456"},{"reference":"http://GoodHealthCare.com/fhir/Practitioner/2300003210"}]}}]},"request":{"method":"PUT","url":"Bundle/642710c678c9438489949adb"}}]}