{"resourceType":"Bundle","id":"tests-286befd9-f52b-4813-92e1-95e07b3ba102-bundle","type":"transaction","entry":[{"resource":{"resourceType":"Bundle","id":"64270cbea7ffa60ebe02488f","type":"collection","entry":[{"fullUrl":"https://madie.cms.gov/Patient/286befd9-f52b-4813-92e1-95e07b3ba102","resource":{"resourceType":"Patient","id":"286befd9-f52b-4813-92e1-95e07b3ba102","meta":{"profile":["http://hl7.org/fhir/us/qicore/StructureDefinition/qicore-patient"]},"extension":[{"url":"http://hl7.org/fhir/us/core/StructureDefinition/us-core-race","extension":[{"url":"ombCategory","valueCoding":{"system":"urn:oid:2.16.840.1.113883.6.238","code":"2028-9","display":"Asian","userSelected":true}},{"url":"text","valueString":"Asian"}]},{"url":"http://hl7.org/fhir/us/core/StructureDefinition/us-core-ethnicity","extension":[{"url":"ombCategory","valueCoding":{"system":"urn:oid:2.16.840.1.113883.6.238","code":"2135-2","display":"Hispanic or Latino","userSelected":true}},{"url":"text","valueString":"Hispanic or Latino"}]}],"identifier":[{"type":{"coding":[{"system":"http://terminology.hl7.org/CodeSystem/v2-0203","code":"MR"}]},"system":"https://goodhealth.healthit.gov/","value":"64270cbea7ffa60ebe02488f"}],"name":[{"family":"IPPass","given":["EncounterHasNoStartDate"]}],"gender":"male","birthDate":"1976-01-01"}},{"fullUrl":"http://GoodHealthCare.com/fhir/Condition/2300003203","resource":{"resourceType":"Condition","id":"2300003203","meta":{"profile":["http://hl7.org/fhir/us/qicore/StructureDefinition/qicore-condition"]},"clinicalStatus":{"coding":[{"system":"http://terminology.hl7.org/CodeSystem/condition-clinical","code":"active","display":"Active","userSelected":true}]},"verificationStatus":{"coding":[{"system":"http://terminology.hl7.org/CodeSystem/condition-ver-status","code":"confirmed","display":"Confirmed","userSelected":true}]},"category":[{"coding":[{"system":"http://terminology.hl7.org/CodeSystem/condition-category","code":"encounter-diagnosis","display":"Encounter Diagnosis","userSelected":true}]}],"code":{"coding":[{"system":"http://snomed.info/sct","version":"http://snomed.info/sct/731000124108/version/20230301","code":"12348006","display":"Presenile dementia (disorder)"}]},"subject":{"reference":"Patient/286befd9-f52b-4813-92e1-95e07b3ba102"},"onsetPeriod":{"start":"2022-12-31T08:00:00.000+00:00"}}},{"fullUrl":"http://GoodHealthCare.com/fhir/Encounter/2300003204","resource":{"resourceType":"Encounter","id":"2300003204","meta":{"profile":["http://hl7.org/fhir/us/qicore/StructureDefinition/qicore-encounter"]},"status":"finished","class":{"system":"http://terminology.hl7.org/CodeSystem/v3-ActCode","code":"AMB","display":"ambulatory","userSelected":true},"type":[{"coding":[{"system":"http://www.ama-assn.org/go/cpt","version":"2023","code":"99212","userSelected":true}]}],"subject":{"reference":"Patient/286befd9-f52b-4813-92e1-95e07b3ba102"},"period":{"start":"2024-02-26T08:00:00.000+00:00"}}},{"fullUrl":"http://GoodHealthCare.com/fhir/Encounter/2300003207","resource":{"resourceType":"Encounter","id":"23000032017","meta":{"profile":["http://hl7.org/fhir/us/qicore/StructureDefinition/qicore-encounter"]},"status":"finished","class":{"system":"http://terminology.hl7.org/CodeSystem/v3-ActCode","code":"AMB","display":"ambulatory","userSelected":true},"type":[{"coding":[{"system":"http://www.ama-assn.org/go/cpt","version":"2023","code":"96116"}]}],"subject":{"reference":"Patient/286befd9-f52b-4813-92e1-95e07b3ba102"},"period":{"end":"2024-08-31T08:35:00.000+00:00"}}},{"fullUrl":"https://madie.cms.gov/MeasureReport/64758fe7be9def4e0b01b192/286befd9-f52b-4813-92e1-95e07b3ba102","resource":{"resourceType":"MeasureReport","id":"78b00e7c-8f67-4781-9815-a2b0f4ec3692","meta":{"profile":["http://hl7.org/fhir/us/cqfmeasures/StructureDefinition/test-case-cqfm"]},"contained":[{"resourceType":"Parameters","id":"EncHasNoStartDate-parameters","parameter":[{"name":"subject","valueString":"286befd9-f52b-4813-92e1-95e07b3ba102"}]}],"extension":[{"url":"http://hl7.org/fhir/us/cqfmeasures/StructureDefinition/cqfm-inputParameters","valueReference":{"reference":"#EncHasNoStartDate-parameters"}},{"url":"http://hl7.org/fhir/us/cqfmeasures/StructureDefinition/cqfm-testCaseDescription","valueMarkdown":"Patient has dementia Dx and 2 encounters but one without a start date"}],"modifierExtension":[{"url":"http://hl7.org/fhir/us/cqfmeasures/StructureDefinition/cqfm-isTestCase","valueBoolean":true}],"status":"complete","type":"individual","measure":"http://ecqi.healthit.gov/ecqms/Measure/DementiaCognitiveAssessmentFHIR","period":{"start":"2024-01-01","end":"2024-12-31"},"group":[{"population":[{"code":{"coding":[{"system":"http://terminology.hl7.org/CodeSystem/measure-population","code":"initial-population","display":"Initial Population"}]},"count":0},{"code":{"coding":[{"system":"http://terminology.hl7.org/CodeSystem/measure-population","code":"denominator","display":"Denominator"}]},"count":0},{"code":{"coding":[{"system":"http://terminology.hl7.org/CodeSystem/measure-population","code":"numerator","display":"Numerator"}]},"count":0},{"code":{"coding":[{"system":"http://terminology.hl7.org/CodeSystem/measure-population","code":"denominator-exception","display":"Denominator Exception"}]},"count":0}]}],"evaluatedResource":[{"reference":"https://madie.cms.gov/Patient/286befd9-f52b-4813-92e1-95e07b3ba102"},{"reference":"http://GoodHealthCare.com/fhir/Condition/2300003203"},{"reference":"http://GoodHealthCare.com/fhir/Encounter/2300003204"},{"reference":"Encounter/23000032017"}]}}]},"request":{"method":"PUT","url":"Bundle/64270cbea7ffa60ebe02488f"}}]}