{"resourceType":"Bundle","id":"tests-8a182f57-a9c7-4feb-a887-0de5975301a2-bundle","type":"transaction","entry":[{"resource":{"resourceType":"Bundle","id":"642713b678c9438489949adf","type":"collection","entry":[{"fullUrl":"https://madie.cms.gov/Patient/8a182f57-a9c7-4feb-a887-0de5975301a2","resource":{"resourceType":"Patient","id":"8a182f57-a9c7-4feb-a887-0de5975301a2","meta":{"profile":["http://hl7.org/fhir/us/qicore/StructureDefinition/qicore-patient"]},"extension":[{"url":"http://hl7.org/fhir/us/core/StructureDefinition/us-core-race","extension":[{"url":"ombCategory","valueCoding":{"system":"urn:oid:2.16.840.1.113883.6.238","code":"1002-5","display":"American Indian or Alaska Native","userSelected":true}},{"url":"text","valueString":"American Indian or Alaska Native"}]},{"url":"http://hl7.org/fhir/us/core/StructureDefinition/us-core-ethnicity","extension":[{"url":"ombCategory","valueCoding":{"system":"urn:oid:2.16.840.1.113883.6.238","code":"2135-2","display":"Hispanic or Latino","userSelected":true}},{"url":"text","valueString":"Hispanic or Latino"}]}],"identifier":[{"type":{"coding":[{"system":"http://terminology.hl7.org/CodeSystem/v2-0203","code":"MR"}]},"system":"https://bonnie-fhir.healthit.gov/","value":"642713b678c9438489949adf"}],"name":[{"family":"NUMERPass","given":["Assessment1MinB4EncounterEdge"]}],"gender":"female","birthDate":"1978-01-02"}},{"fullUrl":"http://GoodHealthCare.com/fhir/Condition/300230001","resource":{"resourceType":"Condition","id":"300230001","meta":{"profile":["http://hl7.org/fhir/us/qicore/StructureDefinition/qicore-condition"]},"clinicalStatus":{"coding":[{"system":"http://terminology.hl7.org/CodeSystem/condition-clinical","code":"active","display":"Active","userSelected":true}]},"verificationStatus":{"coding":[{"system":"http://terminology.hl7.org/CodeSystem/condition-ver-status","code":"confirmed","display":"Confirmed","userSelected":true}]},"category":[{"coding":[{"system":"http://terminology.hl7.org/CodeSystem/condition-category","code":"encounter-diagnosis","display":"Encounter Diagnosis","userSelected":true}]}],"code":{"coding":[{"system":"http://hl7.org/fhir/sid/icd-10-cm","version":"2023","code":"G31.83","userSelected":true}]},"subject":{"reference":"Patient/8a182f57-a9c7-4feb-a887-0de5975301a2"},"onsetPeriod":{"start":"2021-03-30T08:00:00.000+00:00"}}},{"fullUrl":"http://GoodHealthCare.com/fhir/Encounter/300230002","resource":{"resourceType":"Encounter","id":"300230002","meta":{"profile":["http://hl7.org/fhir/us/qicore/StructureDefinition/qicore-encounter"]},"status":"finished","class":{"system":"http://terminology.hl7.org/CodeSystem/v3-ActCode","code":"AMB","display":"ambulatory","userSelected":true},"type":[{"coding":[{"system":"http://www.ama-assn.org/go/cpt","version":"2023","code":"99212","userSelected":true}]}],"subject":{"reference":"Patient/8a182f57-a9c7-4feb-a887-0de5975301a2"},"period":{"start":"2024-03-31T08:00:00.000+00:00","end":"2024-03-31T08:35:00.000+00:00"}}},{"fullUrl":"http://GoodHealthCare.com/fhir/Encounter/300230003","resource":{"resourceType":"Encounter","id":"300230003","meta":{"profile":["http://hl7.org/fhir/us/qicore/StructureDefinition/qicore-encounter"]},"status":"finished","class":{"system":"http://terminology.hl7.org/CodeSystem/v3-ActCode","code":"AMB","display":"ambulatory","userSelected":true},"type":[{"coding":[{"system":"http://snomed.info/sct","version":"http://snomed.info/sct/731000124108/version/202303","code":"185463005","display":"Visit out of hours (procedure)","userSelected":true}]}],"subject":{"reference":"Patient/8a182f57-a9c7-4feb-a887-0de5975301a2"},"period":{"start":"2024-08-31T08:00:00.000+00:00","end":"2024-08-31T08:35:00.000+00:00"}}},{"fullUrl":"http://GoodHealthCare.com/fhir/Observation/300230004","resource":{"resourceType":"Observation","id":"300230004","meta":{"profile":["http://hl7.org/fhir/us/qicore/StructureDefinition/qicore-observation"]},"status":"final","category":[{"coding":[{"system":"http://terminology.hl7.org/CodeSystem/observation-category","code":"survey","display":"Survey","userSelected":true}]}],"code":{"coding":[{"system":"http://loinc.org","version":"2.73","code":"58151-2","display":"Prior assessment Brief Interview for Mental Status (BIMS) summary score [MDSv3]","userSelected":true}]},"subject":{"reference":"Patient/8a182f57-a9c7-4feb-a887-0de5975301a2"},"effectiveDateTime":"2024-08-31T08:34:00.000+00:00","issued":"2024-08-31T08:34:00.000+00:00","valueInteger":26}},{"fullUrl":"http://GoodHealthCare.com/fhir/Coverage/300230005","resource":{"resourceType":"Coverage","id":"300230005","meta":{"profile":["http://hl7.org/fhir/us/qicore/StructureDefinition/qicore-coverage"]},"status":"active","beneficiary":{"reference":"Patient/8a182f57-a9c7-4feb-a887-0de5975301a2"},"payor":[{"reference":"Organization/123456"}]}},{"fullUrl":"http://GoodHealthCare.com/fhir/Organization/123456","resource":{"resourceType":"Organization","id":"123456","meta":{"profile":["http://hl7.org/fhir/us/qicore/StructureDefinition/qicore-organization"]},"identifier":[{"use":"temp","system":"urn:oid:2.16.840.1.113883.4.4","value":"21-3259825"}],"active":true,"type":[{"coding":[{"system":"http://terminology.hl7.org/CodeSystem/organization-type","code":"pay","display":"Payer"}]}],"name":"Blue Cross Blue Shield of Texas","telecom":[{"system":"phone","value":"(+1) 972-766-6900"}],"address":[{"use":"billing","type":"postal","line":["P.O. Box 660044"],"city":"Dallas","state":"TX","postalCode":"75266-0044","country":"USA"}]}},{"fullUrl":"http://GoodHealthCare.com/fhir/Practitioner/123456","resource":{"resourceType":"Practitioner","id":"practitioner-123456","identifier":[{"system":"http://hl7.org/fhir/sid/us-npi","value":"123456"}],"name":[{"family":"Evil","prefix":["Dr"]}]}},{"fullUrl":"https://madie.cms.gov/MeasureReport/64758fe7be9def4e0b01b192/8a182f57-a9c7-4feb-a887-0de5975301a2","resource":{"resourceType":"MeasureReport","id":"725fa931-897b-4490-aec7-263bc5e02471","meta":{"profile":["http://hl7.org/fhir/us/cqfmeasures/StructureDefinition/test-case-cqfm"]},"contained":[{"resourceType":"Parameters","id":"Assessment1MinB4EncounterEdge-parameters","parameter":[{"name":"subject","valueString":"8a182f57-a9c7-4feb-a887-0de5975301a2"}]}],"extension":[{"url":"http://hl7.org/fhir/us/cqfmeasures/StructureDefinition/cqfm-inputParameters","valueReference":{"reference":"#Assessment1MinB4EncounterEdge-parameters"}},{"url":"http://hl7.org/fhir/us/cqfmeasures/StructureDefinition/cqfm-testCaseDescription","valueMarkdown":"Assessment is performed in last minute before end of Visit"}],"modifierExtension":[{"url":"http://hl7.org/fhir/us/cqfmeasures/StructureDefinition/cqfm-isTestCase","valueBoolean":true}],"status":"complete","type":"individual","measure":"http://ecqi.healthit.gov/ecqms/Measure/DementiaCognitiveAssessmentFHIR","period":{"start":"2024-01-01","end":"2024-12-31"},"group":[{"population":[{"code":{"coding":[{"system":"http://terminology.hl7.org/CodeSystem/measure-population","code":"initial-population","display":"Initial Population"}]},"count":1},{"code":{"coding":[{"system":"http://terminology.hl7.org/CodeSystem/measure-population","code":"denominator","display":"Denominator"}]},"count":1},{"code":{"coding":[{"system":"http://terminology.hl7.org/CodeSystem/measure-population","code":"numerator","display":"Numerator"}]},"count":1},{"code":{"coding":[{"system":"http://terminology.hl7.org/CodeSystem/measure-population","code":"denominator-exception","display":"Denominator Exception"}]},"count":0}]}],"evaluatedResource":[{"reference":"https://madie.cms.gov/Patient/8a182f57-a9c7-4feb-a887-0de5975301a2"},{"reference":"http://GoodHealthCare.com/fhir/Condition/300230001"},{"reference":"http://GoodHealthCare.com/fhir/Encounter/300230002"},{"reference":"http://GoodHealthCare.com/fhir/Encounter/300230003"},{"reference":"http://GoodHealthCare.com/fhir/Observation/300230004"},{"reference":"http://GoodHealthCare.com/fhir/Coverage/300230005"},{"reference":"http://GoodHealthCare.com/fhir/Organization/123456"},{"reference":"Practitioner/practitioner-123456"}]}}]},"request":{"method":"PUT","url":"Bundle/642713b678c9438489949adf"}}]}