{
  "resourceType": "Bundle",
  "id": "63ec0967ccb3770120fe9c8f",
  "type": "collection",
  "entry": [ {
    "fullUrl": "https://madie.cms.gov/Patient/a08b6d26-8ef7-417e-9957-fcdfaf0913d8",
    "resource": {
      "resourceType": "Patient",
      "id": "a08b6d26-8ef7-417e-9957-fcdfaf0913d8",
      "meta": {
        "profile": [ "http://hl7.org/fhir/us/qicore/StructureDefinition/qicore-patient" ]
      },
      "text": {
        "status": "generated",
        "div": "<div xmlns=\"http://www.w3.org/1999/xhtml\"><div class=\"hapiHeaderText\">OnAdmit_relevantPeriod <b>HRPASS </b></div><table class=\"hapiPropertyTable\"><tbody><tr><td>Identifier</td><td>849bc1d9a88035639bba704b9d791fc277243ded96eb819b2df3b340c5bc6669</td></tr><tr><td>Date of birth</td><td><span>15 June 1956</span></td></tr></tbody></table></div>"
      },
      "extension": [ {
        "url": "http://hl7.org/fhir/us/core/StructureDefinition/us-core-race",
        "extension": [ {
          "url": "ombCategory",
          "valueCoding": {
            "system": "urn:oid:2.16.840.1.113883.6.238",
            "code": "2106-3",
            "display": "White",
            "userSelected": true
          }
        }, {
          "url": "text",
          "valueString": "White"
        } ]
      }, {
        "url": "http://hl7.org/fhir/us/core/StructureDefinition/us-core-ethnicity",
        "extension": [ {
          "url": "ombCategory",
          "valueCoding": {
            "system": "urn:oid:2.16.840.1.113883.6.238",
            "code": "2135-2",
            "display": "Hispanic or Latino",
            "userSelected": true
          }
        }, {
          "url": "text",
          "valueString": "Hispanic or Latino"
        } ]
      } ],
      "identifier": [ {
        "type": {
          "coding": [ {
            "system": "http://terminology.hl7.org/CodeSystem/v2-0203",
            "code": "MR"
          } ]
        },
        "system": "https://bonnie-fhir.healthit.gov/",
        "value": "63ec0967ccb3770120fe9c8f"
      } ],
      "active": true,
      "name": [ {
        "use": "usual",
        "family": "HRPass",
        "given": [ "OnAdmit_relevantPeriod" ]
      } ],
      "gender": "male",
      "birthDate": "1956-06-15"
    }
  }, {
    "fullUrl": "5e0648f374f67500003f23b0",
    "resource": {
      "resourceType": "Encounter",
      "id": "5e0648f374f67500003f23b0",
      "meta": {
        "profile": [ "http://hl7.org/fhir/us/qicore/StructureDefinition/qicore-encounter" ]
      },
      "status": "finished",
      "class": {
        "system": "http://terminology.hl7.org/CodeSystem/v3-ActCode",
        "code": "ACUTE",
        "display": "acute",
        "userSelected": true
      },
      "type": [ {
        "coding": [ {
          "system": "http://snomed.info/sct",
          "code": "183452005"
        } ]
      } ],
      "subject": {
        "reference": "Patient/a08b6d26-8ef7-417e-9957-fcdfaf0913d8"
      },
      "period": {
        "start": "2024-07-21T08:15:00.000+00:00",
        "end": "2024-07-22T08:20:00.000+00:00"
      },
      "length": {
        "value": 1.0,
        "unit": "days"
      }
    }
  }, {
    "fullUrl": "5f9968dab977ef0000c02c5a",
    "resource": {
      "resourceType": "Coverage",
      "id": "5f9968dab977ef0000c02c5a",
      "meta": {
        "profile": [ "http://hl7.org/fhir/us/qicore/StructureDefinition/qicore-coverage" ]
      },
      "status": "active",
      "type": {
        "coding": [ {
          "system": "https://nahdo.org/sopt",
          "version": "1.0.1",
          "code": "1",
          "display": "Medicare payer",
          "userSelected": true
        } ]
      },
      "beneficiary": {
        "reference": "Patient/a08b6d26-8ef7-417e-9957-fcdfaf0913d8"
      },
      "period": {
        "start": "2022-01-01T06:00:00.000Z",
        "end": "2025-01-01T11:06:01.000Z"
      },
      "payor": [ {
        "reference": "Organization/123456"
      } ]
    }
  }, {
    "fullUrl": "5b55f69ab84846558c53bb4a",
    "resource": {
      "resourceType": "Observation",
      "id": "5b55f69ab84846558c53bb4a",
      "meta": {
        "profile": [ "http://hl7.org/fhir/us/qicore/StructureDefinition/qicore-observation" ]
      },
      "status": "final",
      "category": [ {
        "coding": [ {
          "system": "http://terminology.hl7.org/CodeSystem/observation-category",
          "code": "laboratory",
          "display": "laboratory",
          "userSelected": true
        } ]
      } ],
      "code": {
        "coding": [ {
          "system": "http://loinc.org",
          "code": "8867-4"
        } ]
      },
      "subject": {
        "reference": "Patient/a08b6d26-8ef7-417e-9957-fcdfaf0913d8"
      },
      "effectiveDateTime": "2023-06-21T08:15:00.000Z",
      "valueQuantity": {
        "value": 80.0
      }
    }
  }, {
    "fullUrl": "http://Organization/123456",
    "resource": {
      "resourceType": "Organization",
      "id": "123456",
      "meta": {
        "profile": [ "http://hl7.org/fhir/us/qicore/StructureDefinition/qicore-organization" ]
      },
      "identifier": [ {
        "use": "temp",
        "system": "urn:oid:2.16.840.1.113883.4.4",
        "value": "21-3259825"
      } ],
      "active": true,
      "type": [ {
        "coding": [ {
          "system": "http://terminology.hl7.org/CodeSystem/organization-type",
          "code": "pay",
          "display": "Payer"
        } ]
      } ],
      "name": "Blue Cross Blue Shield of Texas",
      "telecom": [ {
        "system": "phone",
        "value": "(+1) 972-766-6900"
      } ],
      "address": [ {
        "use": "billing",
        "type": "postal",
        "line": [ "P.O. Box 660044" ],
        "city": "Dallas",
        "state": "TX",
        "postalCode": "75266-0044",
        "country": "USA"
      } ]
    }
  }, {
    "fullUrl": "http://Practitioner/123456",
    "resource": {
      "resourceType": "Practitioner",
      "id": "practitioner-123456",
      "meta": {
        "profile": [ "http://hl7.org/fhir/us/qicore/StructureDefinition/qicore-practitioner" ]
      },
      "identifier": [ {
        "system": "http://hl7.org/fhir/sid/us-npi",
        "value": "123456"
      } ],
      "name": [ {
        "family": "Evil",
        "prefix": [ "Dr" ]
      } ]
    }
  }, {
    "fullUrl": "https://madie.cms.gov/MeasureReport/6385011c4ba3d47c885c02ab/a08b6d26-8ef7-417e-9957-fcdfaf0913d8",
    "resource": {
      "resourceType": "MeasureReport",
      "id": "0ac9c5b4-3534-4c62-8a5d-9b462c63f2a4",
      "meta": {
        "profile": [ "http://hl7.org/fhir/us/cqfmeasures/StructureDefinition/test-case-cqfm" ]
      },
      "contained": [ {
        "resourceType": "Parameters",
        "id": "OnAdmit_relevantPeriod-parameters",
        "parameter": [ {
          "name": "subject",
          "valueString": "a08b6d26-8ef7-417e-9957-fcdfaf0913d8"
        } ]
      } ],
      "extension": [ {
        "url": "http://hl7.org/fhir/us/cqfmeasures/StructureDefinition/cqfm-inputParameters",
        "valueReference": {
          "reference": "#OnAdmit_relevantPeriod-parameters"
        }
      }, {
        "url": "http://hl7.org/fhir/us/cqfmeasures/StructureDefinition/cqfm-testCaseDescription",
        "valueMarkdown": "Patient has heart rate exam on admittance. \nExam results included in measure results. "
      } ],
      "modifierExtension": [ {
        "url": "http://hl7.org/fhir/us/cqfmeasures/StructureDefinition/cqfm-isTestCase",
        "valueBoolean": true
      } ],
      "status": "complete",
      "type": "individual",
      "measure": "http://ecqi.healthit.gov/ecqms/Measure/HybridHospitalWideMortalityFHIR",
      "period": {
        "start": "2024-07-01",
        "end": "2025-06-30"
      },
      "group": [ {
        "population": [ {
          "code": {
            "coding": [ {
              "system": "http://terminology.hl7.org/CodeSystem/measure-population",
              "code": "initial-population",
              "display": "Initial Population"
            } ]
          },
          "count": 1
        } ]
      } ],
      "evaluatedResource": [ {
        "reference": "https://madie.cms.gov/Patient/a08b6d26-8ef7-417e-9957-fcdfaf0913d8"
      }, {
        "reference": "Encounter/5e0648f374f67500003f23b0"
      }, {
        "reference": "Coverage/5f9968dab977ef0000c02c5a"
      }, {
        "reference": "Observation/5b55f69ab84846558c53bb4a"
      }, {
        "reference": "Organization/123456"
      }, {
        "reference": "Practitioner/practitioner-123456"
      } ]
    }
  } ]
}