{
  "resourceType": "Bundle",
  "id": "63ec0965ccb3770120fe9b6a",
  "type": "collection",
  "entry": [ {
    "fullUrl": "https://madie.cms.gov/Patient/c420efa4-0cf4-45f9-b02d-7f255da9437b",
    "resource": {
      "resourceType": "Patient",
      "id": "c420efa4-0cf4-45f9-b02d-7f255da9437b",
      "meta": {
        "profile": [ "http://hl7.org/fhir/us/qicore/StructureDefinition/qicore-patient" ]
      },
      "text": {
        "status": "generated",
        "div": "<div xmlns=\"http://www.w3.org/1999/xhtml\"><div class=\"hapiHeaderText\">LT24beforeAndGT2after_relevantPeriod_endonly <b>SBPPASS </b></div><table class=\"hapiPropertyTable\"><tbody><tr><td>Identifier</td><td>ff71e6df6fc1b78e69460d357884fa81714d2acf91ffda248ad3470e982fcab8</td></tr><tr><td>Date of birth</td><td><span>15 June 1956</span></td></tr></tbody></table></div>"
      },
      "extension": [ {
        "url": "http://hl7.org/fhir/us/core/StructureDefinition/us-core-race",
        "extension": [ {
          "url": "ombCategory",
          "valueCoding": {
            "system": "urn:oid:2.16.840.1.113883.6.238",
            "code": "1002-5",
            "display": "American Indian or Alaska Native",
            "userSelected": true
          }
        }, {
          "url": "text",
          "valueString": "American Indian or Alaska Native"
        } ]
      }, {
        "url": "http://hl7.org/fhir/us/core/StructureDefinition/us-core-ethnicity",
        "extension": [ {
          "url": "ombCategory",
          "valueCoding": {
            "system": "urn:oid:2.16.840.1.113883.6.238",
            "code": "2186-5",
            "display": "Not Hispanic or Latino",
            "userSelected": true
          }
        }, {
          "url": "text",
          "valueString": "Not Hispanic or Latino"
        } ]
      } ],
      "identifier": [ {
        "type": {
          "coding": [ {
            "system": "http://terminology.hl7.org/CodeSystem/v2-0203",
            "code": "MR"
          } ]
        },
        "system": "https://bonnie-fhir.healthit.gov/",
        "value": "63ec0965ccb3770120fe9b6a"
      } ],
      "active": true,
      "name": [ {
        "use": "usual",
        "family": "SBPPass",
        "given": [ "LT24beforeAndGT2after_relevantPeriod_endonly" ]
      } ],
      "gender": "male",
      "birthDate": "1956-06-15"
    }
  }, {
    "fullUrl": "5e06513f9350f90000fe2684",
    "resource": {
      "resourceType": "Encounter",
      "id": "5e06513f9350f90000fe2684",
      "meta": {
        "profile": [ "http://hl7.org/fhir/us/qicore/StructureDefinition/qicore-encounter" ]
      },
      "status": "finished",
      "class": {
        "system": "http://terminology.hl7.org/CodeSystem/v3-ActCode",
        "code": "OBSENC",
        "display": "observation encounter",
        "userSelected": true
      },
      "type": [ {
        "coding": [ {
          "system": "http://snomed.info/sct",
          "code": "183452005"
        } ]
      } ],
      "subject": {
        "reference": "Patient/c420efa4-0cf4-45f9-b02d-7f255da9437b"
      },
      "period": {
        "start": "2024-09-21T08:00:00.000+00:00",
        "end": "2024-09-22T08:15:00.000+00:00"
      },
      "length": {
        "value": 1.0,
        "unit": "days"
      }
    }
  }, {
    "fullUrl": "5f9969a2b977ef0000c02e9a",
    "resource": {
      "resourceType": "Coverage",
      "id": "5f9969a2b977ef0000c02e9a",
      "meta": {
        "profile": [ "http://hl7.org/fhir/us/qicore/StructureDefinition/qicore-coverage" ]
      },
      "status": "active",
      "type": {
        "coding": [ {
          "system": "https://nahdo.org/sopt",
          "version": "1.0.1",
          "code": "1",
          "display": "Medicare payer",
          "userSelected": true
        } ]
      },
      "beneficiary": {
        "reference": "Patient/c420efa4-0cf4-45f9-b02d-7f255da9437b"
      },
      "period": {
        "start": "2020-10-28T08:00:00.000+00:00",
        "end": "2026-10-28T08:15:00.000+00:00"
      },
      "payor": [ {
        "reference": "Organization/123456"
      } ]
    }
  }, {
    "fullUrl": "5b7c565ab84846299c81a5c8",
    "resource": {
      "resourceType": "Observation",
      "id": "5b7c565ab84846299c81a5c8",
      "meta": {
        "profile": [ "http://hl7.org/fhir/us/qicore/StructureDefinition/qicore-observation" ]
      },
      "status": "amended",
      "category": [ {
        "coding": [ {
          "system": "http://terminology.hl7.org/CodeSystem/observation-category",
          "code": "laboratory",
          "display": "laboratory",
          "userSelected": true
        } ]
      } ],
      "code": {
        "coding": [ {
          "system": "http://loinc.org",
          "code": "8480-6"
        } ]
      },
      "subject": {
        "reference": "Patient/c420efa4-0cf4-45f9-b02d-7f255da9437b"
      },
      "effectiveDateTime": "2024-09-20T08:15:00.000+00:00",
      "valueQuantity": {
        "value": 120.0
      }
    }
  }, {
    "fullUrl": "5b7c565ab84846299c81a5cb",
    "resource": {
      "resourceType": "Observation",
      "id": "5b7c565ab84846299c81a5cb",
      "meta": {
        "profile": [ "http://hl7.org/fhir/us/qicore/StructureDefinition/qicore-observation" ]
      },
      "status": "final",
      "category": [ {
        "coding": [ {
          "system": "http://terminology.hl7.org/CodeSystem/observation-category",
          "code": "laboratory",
          "display": "laboratory",
          "userSelected": true
        } ]
      } ],
      "code": {
        "coding": [ {
          "system": "http://loinc.org",
          "code": "8480-6"
        } ]
      },
      "subject": {
        "reference": "Patient/c420efa4-0cf4-45f9-b02d-7f255da9437b"
      },
      "effectiveDateTime": "2024-09-21T10:01:00.000+00:00",
      "valueQuantity": {
        "value": 115.0
      }
    }
  }, {
    "fullUrl": "http://Organization/123456",
    "resource": {
      "resourceType": "Organization",
      "id": "123456",
      "meta": {
        "profile": [ "http://hl7.org/fhir/us/qicore/StructureDefinition/qicore-organization" ]
      },
      "identifier": [ {
        "use": "temp",
        "system": "urn:oid:2.16.840.1.113883.4.4",
        "value": "21-3259825"
      } ],
      "active": true,
      "type": [ {
        "coding": [ {
          "system": "http://terminology.hl7.org/CodeSystem/organization-type",
          "code": "pay",
          "display": "Payer"
        } ]
      } ],
      "name": "Blue Cross Blue Shield of Texas",
      "telecom": [ {
        "system": "phone",
        "value": "(+1) 972-766-6900"
      } ],
      "address": [ {
        "use": "billing",
        "type": "postal",
        "line": [ "P.O. Box 660044" ],
        "city": "Dallas",
        "state": "TX",
        "postalCode": "75266-0044",
        "country": "USA"
      } ]
    }
  }, {
    "fullUrl": "http://Practitioner/123456",
    "resource": {
      "resourceType": "Practitioner",
      "id": "practitioner-123456",
      "meta": {
        "profile": [ "http://hl7.org/fhir/us/qicore/StructureDefinition/qicore-practitioner" ]
      },
      "identifier": [ {
        "system": "http://hl7.org/fhir/sid/us-npi",
        "value": "123456"
      } ],
      "name": [ {
        "family": "Evil",
        "prefix": [ "Dr" ]
      } ]
    }
  }, {
    "fullUrl": "https://madie.cms.gov/MeasureReport/6385011c4ba3d47c885c02ab/c420efa4-0cf4-45f9-b02d-7f255da9437b",
    "resource": {
      "resourceType": "MeasureReport",
      "id": "b048cb28-26f3-45dc-8a92-c2d726064618",
      "meta": {
        "profile": [ "http://hl7.org/fhir/us/cqfmeasures/StructureDefinition/test-case-cqfm" ]
      },
      "contained": [ {
        "resourceType": "Parameters",
        "id": "LT2after_relevantPeriod_StartOnly-parameters",
        "parameter": [ {
          "name": "subject",
          "valueString": "c420efa4-0cf4-45f9-b02d-7f255da9437b"
        } ]
      } ],
      "extension": [ {
        "url": "http://hl7.org/fhir/us/cqfmeasures/StructureDefinition/cqfm-inputParameters",
        "valueReference": {
          "reference": "#LT2after_relevantPeriod_StartOnly-parameters"
        }
      }, {
        "url": "http://hl7.org/fhir/us/cqfmeasures/StructureDefinition/cqfm-testCaseDescription",
        "valueMarkdown": "Patient has temp exam within 2 hours of start of encounter.\nPatient in results. "
      } ],
      "modifierExtension": [ {
        "url": "http://hl7.org/fhir/us/cqfmeasures/StructureDefinition/cqfm-isTestCase",
        "valueBoolean": true
      } ],
      "status": "complete",
      "type": "individual",
      "measure": "http://ecqi.healthit.gov/ecqms/Measure/HybridHospitalWideMortalityFHIR",
      "period": {
        "start": "2024-07-01",
        "end": "2025-06-30"
      },
      "group": [ {
        "population": [ {
          "code": {
            "coding": [ {
              "system": "http://terminology.hl7.org/CodeSystem/measure-population",
              "code": "initial-population",
              "display": "Initial Population"
            } ]
          },
          "count": 1
        } ]
      } ],
      "evaluatedResource": [ {
        "reference": "https://madie.cms.gov/Patient/c420efa4-0cf4-45f9-b02d-7f255da9437b"
      }, {
        "reference": "Encounter/5e06513f9350f90000fe2684"
      }, {
        "reference": "Coverage/5f9969a2b977ef0000c02e9a"
      }, {
        "reference": "Observation/5b7c565ab84846299c81a5c8"
      }, {
        "reference": "Observation/5b7c565ab84846299c81a5cb"
      }, {
        "reference": "Organization/123456"
      }, {
        "reference": "Practitioner/practitioner-123456"
      } ]
    }
  } ]
}