{
  "resourceType": "Bundle",
  "id": "63ec0965ccb3770120fe9ab4",
  "type": "collection",
  "entry": [ {
    "fullUrl": "https://madie.cms.gov/Patient/35bfcfd8-c661-4b4b-8a57-6df87f97da37",
    "resource": {
      "resourceType": "Patient",
      "id": "35bfcfd8-c661-4b4b-8a57-6df87f97da37",
      "meta": {
        "profile": [ "http://hl7.org/fhir/us/qicore/StructureDefinition/qicore-patient" ]
      },
      "text": {
        "status": "generated",
        "div": "<div xmlns=\"http://www.w3.org/1999/xhtml\"><div class=\"hapiHeaderText\">PlateletRRHR <b>COMBO1 </b></div><table class=\"hapiPropertyTable\"><tbody><tr><td>Identifier</td><td>3fdea26b1d172050afffe1c0ff7bd899faa0bd0df7d367f433ae26111f27549c</td></tr><tr><td>Date of birth</td><td><span>15 June 1956</span></td></tr></tbody></table></div>"
      },
      "extension": [ {
        "url": "http://hl7.org/fhir/us/core/StructureDefinition/us-core-race",
        "extension": [ {
          "url": "ombCategory",
          "valueCoding": {
            "system": "urn:oid:2.16.840.1.113883.6.238",
            "code": "1002-5",
            "display": "American Indian or Alaska Native",
            "userSelected": true
          }
        }, {
          "url": "text",
          "valueString": "American Indian or Alaska Native"
        } ]
      }, {
        "url": "http://hl7.org/fhir/us/core/StructureDefinition/us-core-ethnicity",
        "extension": [ {
          "url": "ombCategory",
          "valueCoding": {
            "system": "urn:oid:2.16.840.1.113883.6.238",
            "code": "2186-5",
            "display": "Not Hispanic or Latino",
            "userSelected": true
          }
        }, {
          "url": "text",
          "valueString": "Not Hispanic or Latino"
        } ]
      } ],
      "identifier": [ {
        "type": {
          "coding": [ {
            "system": "http://terminology.hl7.org/CodeSystem/v2-0203",
            "code": "MR"
          } ]
        },
        "system": "https://bonnie-fhir.healthit.gov/",
        "value": "63ec0965ccb3770120fe9ab4"
      } ],
      "active": true,
      "name": [ {
        "use": "usual",
        "family": "Combo1",
        "given": [ "PlateletRRHR" ]
      } ],
      "gender": "male",
      "birthDate": "1956-06-15"
    }
  }, {
    "fullUrl": "5e06503a9350f90000fe25a8",
    "resource": {
      "resourceType": "Encounter",
      "id": "5e06503a9350f90000fe25a8",
      "meta": {
        "profile": [ "http://hl7.org/fhir/us/qicore/StructureDefinition/qicore-encounter" ]
      },
      "status": "finished",
      "class": {
        "system": "http://terminology.hl7.org/CodeSystem/v3-ActCode",
        "code": "NONAC",
        "display": "nonacute encounter",
        "userSelected": true
      },
      "type": [ {
        "coding": [ {
          "system": "http://snomed.info/sct",
          "code": "183452005"
        } ]
      } ],
      "subject": {
        "reference": "Patient/35bfcfd8-c661-4b4b-8a57-6df87f97da37"
      },
      "period": {
        "start": "2024-08-21T08:00:00.000+00:00",
        "end": "2024-08-22T08:15:00.000+00:00"
      },
      "length": {
        "value": 1.0,
        "unit": "days"
      }
    }
  }, {
    "fullUrl": "5f996975b977ef0000c02e1a",
    "resource": {
      "resourceType": "Coverage",
      "id": "5f996975b977ef0000c02e1a",
      "meta": {
        "profile": [ "http://hl7.org/fhir/us/qicore/StructureDefinition/qicore-coverage" ]
      },
      "status": "active",
      "type": {
        "coding": [ {
          "system": "https://nahdo.org/sopt",
          "version": "1.0.1",
          "code": "1",
          "display": "Medicare payer",
          "userSelected": true
        } ]
      },
      "beneficiary": {
        "reference": "Patient/35bfcfd8-c661-4b4b-8a57-6df87f97da37"
      },
      "payor": [ {
        "reference": "Organization/123456"
      } ]
    }
  }, {
    "fullUrl": "5b5f8c6eb848461e71030b29",
    "resource": {
      "resourceType": "Observation",
      "id": "5b5f8c6eb848461e71030b29",
      "meta": {
        "profile": [ "http://hl7.org/fhir/us/qicore/StructureDefinition/qicore-observation" ]
      },
      "status": "preliminary",
      "category": [ {
        "coding": [ {
          "system": "http://terminology.hl7.org/CodeSystem/observation-category",
          "code": "laboratory",
          "display": "laboratory",
          "userSelected": true
        } ]
      } ],
      "code": {
        "coding": [ {
          "system": "http://loinc.org",
          "code": "13056-7"
        } ]
      },
      "subject": {
        "reference": "Patient/35bfcfd8-c661-4b4b-8a57-6df87f97da37"
      },
      "effectiveDateTime": "2024-08-22T08:00:00.000Z",
      "valueQuantity": {
        "value": 1.0
      }
    }
  }, {
    "fullUrl": "5fd115cd7750e50000950b46",
    "resource": {
      "resourceType": "Observation",
      "id": "5fd115cd7750e50000950b46",
      "meta": {
        "profile": [ "http://hl7.org/fhir/us/qicore/StructureDefinition/qicore-observation" ]
      },
      "status": "amended",
      "category": [ {
        "coding": [ {
          "system": "http://terminology.hl7.org/CodeSystem/observation-category",
          "code": "laboratory",
          "display": "laboratory",
          "userSelected": true
        } ]
      } ],
      "code": {
        "coding": [ {
          "system": "http://loinc.org",
          "code": "8867-4"
        } ]
      },
      "subject": {
        "reference": "Patient/35bfcfd8-c661-4b4b-8a57-6df87f97da37"
      },
      "effectiveDateTime": "2024-08-20T20:00:00.000Z",
      "valueQuantity": {
        "value": 70.0
      }
    }
  }, {
    "fullUrl": "5fd116437750e50000950ba8",
    "resource": {
      "resourceType": "Observation",
      "id": "5fd116437750e50000950ba8",
      "meta": {
        "profile": [ "http://hl7.org/fhir/us/qicore/StructureDefinition/qicore-observation" ]
      },
      "status": "final",
      "category": [ {
        "coding": [ {
          "system": "http://terminology.hl7.org/CodeSystem/observation-category",
          "code": "laboratory",
          "display": "laboratory",
          "userSelected": true
        } ]
      } ],
      "code": {
        "coding": [ {
          "system": "http://loinc.org",
          "code": "8480-6"
        } ]
      },
      "subject": {
        "reference": "Patient/35bfcfd8-c661-4b4b-8a57-6df87f97da37"
      },
      "effectiveDateTime": "2024-08-21T08:00:00.000Z",
      "valueQuantity": {
        "value": 115.0
      }
    }
  }, {
    "fullUrl": "Organization/123456",
    "resource": {
      "resourceType": "Organization",
      "id": "123456",
      "meta": {
        "profile": [ "http://hl7.org/fhir/us/qicore/StructureDefinition/qicore-organization" ]
      },
      "identifier": [ {
        "use": "temp",
        "system": "urn:oid:2.16.840.1.113883.4.4",
        "value": "21-3259825"
      } ],
      "active": true,
      "type": [ {
        "coding": [ {
          "system": "http://terminology.hl7.org/CodeSystem/organization-type",
          "code": "pay",
          "display": "Payer"
        } ]
      } ],
      "name": "Blue Cross Blue Shield of Texas",
      "telecom": [ {
        "system": "phone",
        "value": "(+1) 972-766-6900"
      } ],
      "address": [ {
        "use": "billing",
        "type": "postal",
        "line": [ "P.O. Box 660044" ],
        "city": "Dallas",
        "state": "TX",
        "postalCode": "75266-0044",
        "country": "USA"
      } ]
    }
  }, {
    "fullUrl": "http://Practitioner/123456",
    "resource": {
      "resourceType": "Practitioner",
      "id": "practitioner-123456",
      "meta": {
        "profile": [ "http://hl7.org/fhir/us/qicore/StructureDefinition/qicore-practitioner" ]
      },
      "identifier": [ {
        "system": "http://hl7.org/fhir/sid/us-npi",
        "value": "123456"
      } ],
      "name": [ {
        "family": "Evil",
        "prefix": [ "Dr" ]
      } ]
    }
  }, {
    "fullUrl": "https://madie.cms.gov/MeasureReport/6385011c4ba3d47c885c02ab/35bfcfd8-c661-4b4b-8a57-6df87f97da37",
    "resource": {
      "resourceType": "MeasureReport",
      "id": "b1cba7bb-b772-423d-af7e-0c0bb8dae051",
      "meta": {
        "profile": [ "http://hl7.org/fhir/us/cqfmeasures/StructureDefinition/test-case-cqfm" ]
      },
      "contained": [ {
        "resourceType": "Parameters",
        "id": "PlateletRRHR-parameters",
        "parameter": [ {
          "name": "subject",
          "valueString": "35bfcfd8-c661-4b4b-8a57-6df87f97da37"
        } ]
      } ],
      "extension": [ {
        "url": "http://hl7.org/fhir/us/cqfmeasures/StructureDefinition/cqfm-inputParameters",
        "valueReference": {
          "reference": "#PlateletRRHR-parameters"
        }
      }, {
        "url": "http://hl7.org/fhir/us/cqfmeasures/StructureDefinition/cqfm-testCaseDescription",
        "valueMarkdown": "3 labs and exams occurred within encounter timing interval.\nresults included in measure results. "
      } ],
      "modifierExtension": [ {
        "url": "http://hl7.org/fhir/us/cqfmeasures/StructureDefinition/cqfm-isTestCase",
        "valueBoolean": true
      } ],
      "status": "complete",
      "type": "individual",
      "measure": "http://ecqi.healthit.gov/ecqms/Measure/HybridHospitalWideMortalityFHIR",
      "period": {
        "start": "2024-07-01",
        "end": "2025-06-30"
      },
      "group": [ {
        "population": [ {
          "code": {
            "coding": [ {
              "system": "http://terminology.hl7.org/CodeSystem/measure-population",
              "code": "initial-population",
              "display": "Initial Population"
            } ]
          },
          "count": 1
        } ]
      } ],
      "evaluatedResource": [ {
        "reference": "https://madie.cms.gov/Patient/35bfcfd8-c661-4b4b-8a57-6df87f97da37"
      }, {
        "reference": "Encounter/5e06503a9350f90000fe25a8"
      }, {
        "reference": "Coverage/5f996975b977ef0000c02e1a"
      }, {
        "reference": "Observation/5b5f8c6eb848461e71030b29"
      }, {
        "reference": "Observation/5fd115cd7750e50000950b46"
      }, {
        "reference": "Observation/5fd116437750e50000950ba8"
      }, {
        "reference": "Organization/123456"
      }, {
        "reference": "Practitioner/practitioner-123456"
      } ]
    }
  } ]
}