{"resourceType":"Bundle","id":"tests-73b803bf-207c-411d-8db3-01908e5d9dda-bundle","type":"transaction","entry":[{"resource":{"resourceType":"Bundle","id":"63ec096accb3770120fe9fa2","type":"collection","entry":[{"fullUrl":"https://madie.cms.gov/Patient/73b803bf-207c-411d-8db3-01908e5d9dda","resource":{"resourceType":"Patient","id":"73b803bf-207c-411d-8db3-01908e5d9dda","meta":{"profile":["http://hl7.org/fhir/us/qicore/StructureDefinition/qicore-patient"]},"text":{"status":"generated","div":"<div xmlns=\"http://www.w3.org/1999/xhtml\"><div class=\"hapiHeaderText\">LT24beforeAndLT2after <b>WBCPASS </b></div><table class=\"hapiPropertyTable\"><tbody><tr><td>Identifier</td><td>02a3c13b70ccf5a73b893e80582952bdd83e9cabbf053902bb5eb341874dc5ec</td></tr><tr><td>Date of birth</td><td><span>15 June 1956</span></td></tr></tbody></table></div>"},"extension":[{"url":"http://hl7.org/fhir/us/core/StructureDefinition/us-core-race","extension":[{"url":"ombCategory","valueCoding":{"system":"urn:oid:2.16.840.1.113883.6.238","code":"1002-5","display":"American Indian or Alaska Native","userSelected":true}},{"url":"text","valueString":"American Indian or Alaska Native"}]},{"url":"http://hl7.org/fhir/us/core/StructureDefinition/us-core-ethnicity","extension":[{"url":"ombCategory","valueCoding":{"system":"urn:oid:2.16.840.1.113883.6.238","code":"2186-5","display":"Not Hispanic or Latino","userSelected":true}},{"url":"text","valueString":"Not Hispanic or Latino"}]}],"identifier":[{"type":{"coding":[{"system":"http://terminology.hl7.org/CodeSystem/v2-0203","code":"MR"}]},"system":"https://bonnie-fhir.healthit.gov/","value":"63ec096accb3770120fe9fa2"}],"active":true,"name":[{"use":"usual","family":"WBCPass","given":["LT24beforeAndLT2after"]}],"gender":"male","birthDate":"1956-06-15"}},{"fullUrl":"5e0653429350f90000fe2873","resource":{"resourceType":"Encounter","id":"5e0653429350f90000fe2873","meta":{"profile":["http://hl7.org/fhir/us/qicore/StructureDefinition/qicore-encounter"]},"status":"finished","class":{"system":"http://terminology.hl7.org/CodeSystem/v3-ActCode","code":"IMP","display":"inpatient encounter","userSelected":true},"type":[{"coding":[{"system":"http://snomed.info/sct","code":"183452005"}]}],"subject":{"reference":"Patient/73b803bf-207c-411d-8db3-01908e5d9dda"},"period":{"start":"2024-08-21T08:00:00.000+00:00","end":"2024-08-22T08:15:00.000+00:00"},"length":{"value":1.0,"unit":"days"}}},{"fullUrl":"5f996a1cb977ef0000c02f8a","resource":{"resourceType":"Coverage","id":"5f996a1cb977ef0000c02f8a","meta":{"profile":["http://hl7.org/fhir/us/qicore/StructureDefinition/qicore-coverage"]},"status":"active","type":{"coding":[{"system":"https://nahdo.org/sopt","version":"1.0.1","code":"1","display":"Medicare payer","userSelected":true}]},"beneficiary":{"reference":"Patient/73b803bf-207c-411d-8db3-01908e5d9dda"},"payor":[{"reference":"Organization/123456"}]}},{"fullUrl":"5b55f69ab84846558c53bb71","resource":{"resourceType":"Observation","id":"5b55f69ab84846558c53bb71","meta":{"profile":["http://hl7.org/fhir/us/qicore/StructureDefinition/qicore-observation"]},"status":"final","category":[{"coding":[{"system":"http://terminology.hl7.org/CodeSystem/observation-category","code":"laboratory","display":"laboratory","userSelected":true}]}],"code":{"coding":[{"system":"http://loinc.org","code":"26464-8"}]},"subject":{"reference":"Patient/73b803bf-207c-411d-8db3-01908e5d9dda"},"issued":"2024-08-20T08:01:00.000+00:00","valueQuantity":{"value":1.0}}},{"fullUrl":"5b55f69ab84846558c53bb73","resource":{"resourceType":"Observation","id":"5b55f69ab84846558c53bb73","meta":{"profile":["http://hl7.org/fhir/us/qicore/StructureDefinition/qicore-observation"]},"status":"final","category":[{"coding":[{"system":"http://terminology.hl7.org/CodeSystem/observation-category","code":"laboratory","display":"laboratory","userSelected":true}]}],"code":{"coding":[{"system":"http://loinc.org","code":"26464-8"}]},"subject":{"reference":"Patient/73b803bf-207c-411d-8db3-01908e5d9dda"},"issued":"2024-08-21T09:59:00.000+00:00","valueQuantity":{"value":2.0}}},{"fullUrl":"http://Organization/123456","resource":{"resourceType":"Organization","id":"123456","meta":{"profile":["http://hl7.org/fhir/us/qicore/StructureDefinition/qicore-organization"]},"identifier":[{"use":"temp","system":"urn:oid:2.16.840.1.113883.4.4","value":"21-3259825"}],"active":true,"type":[{"coding":[{"system":"http://terminology.hl7.org/CodeSystem/organization-type","code":"pay","display":"Payer"}]}],"name":"Blue Cross Blue Shield of Texas","telecom":[{"system":"phone","value":"(+1) 972-766-6900"}],"address":[{"use":"billing","type":"postal","line":["P.O. Box 660044"],"city":"Dallas","state":"TX","postalCode":"75266-0044","country":"USA"}]}},{"fullUrl":"http://Practitioner/123456","resource":{"resourceType":"Practitioner","id":"practitioner-123456","meta":{"profile":["http://hl7.org/fhir/us/qicore/StructureDefinition/qicore-practitioner"]},"identifier":[{"system":"http://hl7.org/fhir/sid/us-npi","value":"123456"}],"name":[{"family":"Evil","prefix":["Dr"]}]}},{"fullUrl":"https://madie.cms.gov/MeasureReport/6385011c4ba3d47c885c02ab/73b803bf-207c-411d-8db3-01908e5d9dda","resource":{"resourceType":"MeasureReport","id":"76fc73df-7641-4c7c-81f4-7e8776e47faa","meta":{"profile":["http://hl7.org/fhir/us/cqfmeasures/StructureDefinition/test-case-cqfm"]},"contained":[{"resourceType":"Parameters","id":"LT24beforeAndLT2after-parameters","parameter":[{"name":"subject","valueString":"73b803bf-207c-411d-8db3-01908e5d9dda"}]}],"extension":[{"url":"http://hl7.org/fhir/us/cqfmeasures/StructureDefinition/cqfm-inputParameters","valueReference":{"reference":"#LT24beforeAndLT2after-parameters"}},{"url":"http://hl7.org/fhir/us/cqfmeasures/StructureDefinition/cqfm-testCaseDescription","valueMarkdown":"Both values are within the timing window but we only take the first"}],"modifierExtension":[{"url":"http://hl7.org/fhir/us/cqfmeasures/StructureDefinition/cqfm-isTestCase","valueBoolean":true}],"status":"complete","type":"individual","measure":"http://ecqi.healthit.gov/ecqms/Measure/HybridHospitalWideMortalityFHIR","period":{"start":"2024-07-01","end":"2025-06-30"},"group":[{"population":[{"code":{"coding":[{"system":"http://terminology.hl7.org/CodeSystem/measure-population","code":"initial-population","display":"Initial Population"}]},"count":1}]}],"evaluatedResource":[{"reference":"https://madie.cms.gov/Patient/73b803bf-207c-411d-8db3-01908e5d9dda"},{"reference":"Encounter/5e0653429350f90000fe2873"},{"reference":"Coverage/5f996a1cb977ef0000c02f8a"},{"reference":"Observation/5b55f69ab84846558c53bb71"},{"reference":"Observation/5b55f69ab84846558c53bb73"},{"reference":"Organization/123456"},{"reference":"Practitioner/practitioner-123456"}]}}]},"request":{"method":"PUT","url":"Bundle/63ec096accb3770120fe9fa2"}}]}