{"resourceType":"Bundle","id":"tests-931bd37a-4aed-48b1-a2ab-b6d73c0b07f0-bundle","type":"transaction","entry":[{"resource":{"resourceType":"Bundle","id":"63ec096bccb3770120fea062","type":"collection","entry":[{"fullUrl":"https://madie.cms.gov/Patient/931bd37a-4aed-48b1-a2ab-b6d73c0b07f0","resource":{"resourceType":"Patient","id":"931bd37a-4aed-48b1-a2ab-b6d73c0b07f0","meta":{"profile":["http://hl7.org/fhir/us/qicore/StructureDefinition/qicore-patient"]},"text":{"status":"generated","div":"<div xmlns=\"http://www.w3.org/1999/xhtml\"><div class=\"hapiHeaderText\">LT24beforeAndLT24after <b>O2SATPASS </b></div><table class=\"hapiPropertyTable\"><tbody><tr><td>Identifier</td><td>ae834fed154ca85310edab5b6b395215b3a2e06a5e5c95c18b6eb8509f2f27e1</td></tr><tr><td>Date of birth</td><td><span>15 June 1956</span></td></tr></tbody></table></div>"},"extension":[{"url":"http://hl7.org/fhir/us/core/StructureDefinition/us-core-race","extension":[{"url":"ombCategory","valueCoding":{"system":"urn:oid:2.16.840.1.113883.6.238","code":"1002-5","display":"American Indian or Alaska Native","userSelected":true}},{"url":"text","valueString":"American Indian or Alaska Native"}]},{"url":"http://hl7.org/fhir/us/core/StructureDefinition/us-core-ethnicity","extension":[{"url":"ombCategory","valueCoding":{"system":"urn:oid:2.16.840.1.113883.6.238","code":"2186-5","display":"Not Hispanic or Latino","userSelected":true}},{"url":"text","valueString":"Not Hispanic or Latino"}]}],"identifier":[{"type":{"coding":[{"system":"http://terminology.hl7.org/CodeSystem/v2-0203","code":"MR"}]},"system":"https://bonnie-fhir.healthit.gov/","value":"63ec096bccb3770120fea062"}],"active":true,"name":[{"use":"usual","family":"O2SatPass","given":["LT24beforeAndLT24after"]}],"gender":"male","birthDate":"1956-06-15"}},{"fullUrl":"5e064fcb9350f90000fe2537","resource":{"resourceType":"Encounter","id":"5e064fcb9350f90000fe2537","meta":{"profile":["http://hl7.org/fhir/us/qicore/StructureDefinition/qicore-encounter"]},"status":"finished","class":{"system":"http://terminology.hl7.org/CodeSystem/v3-ActCode","code":"OBSENC","display":"observation encounter","userSelected":true},"type":[{"coding":[{"system":"http://snomed.info/sct","code":"183452005"}]}],"subject":{"reference":"Patient/931bd37a-4aed-48b1-a2ab-b6d73c0b07f0"},"period":{"start":"2024-08-21T08:00:00.000+00:00","end":"2024-08-22T01:05:00.000+00:00"},"length":{"value":1.0,"unit":"days"}}},{"fullUrl":"5f99693eb977ef0000c02d5c","resource":{"resourceType":"Coverage","id":"5f99693eb977ef0000c02d5c","meta":{"profile":["http://hl7.org/fhir/us/qicore/StructureDefinition/qicore-coverage"]},"status":"active","type":{"coding":[{"system":"https://nahdo.org/sopt","version":"1.0.1","code":"1","display":"Medicare payer","userSelected":true}]},"beneficiary":{"reference":"Patient/931bd37a-4aed-48b1-a2ab-b6d73c0b07f0"},"payor":[{"reference":"Organization/123456"}]}},{"fullUrl":"5b55f69ab84846558c53bb54","resource":{"resourceType":"Observation","id":"5b55f69ab84846558c53bb54","meta":{"profile":["http://hl7.org/fhir/us/qicore/StructureDefinition/qicore-observation"]},"status":"final","category":[{"coding":[{"system":"http://terminology.hl7.org/CodeSystem/observation-category","code":"laboratory","display":"laboratory","userSelected":true}]}],"code":{"coding":[{"system":"http://loinc.org","code":"59408-5"}]},"subject":{"reference":"Patient/931bd37a-4aed-48b1-a2ab-b6d73c0b07f0"},"effectiveDateTime":"2024-08-20T11:00:00.000+00:00","valueQuantity":{"value":1.0}}},{"fullUrl":"5b55f69ab84846558c53bb56","resource":{"resourceType":"Observation","id":"5b55f69ab84846558c53bb56","meta":{"profile":["http://hl7.org/fhir/us/qicore/StructureDefinition/qicore-observation"]},"status":"final","category":[{"coding":[{"system":"http://terminology.hl7.org/CodeSystem/observation-category","code":"laboratory","display":"laboratory","userSelected":true}]}],"code":{"coding":[{"system":"http://loinc.org","code":"59408-5"}]},"subject":{"reference":"Patient/931bd37a-4aed-48b1-a2ab-b6d73c0b07f0"},"effectiveDateTime":"2024-08-21T08:00:00.000+00:00","valueQuantity":{"value":2.0}}},{"fullUrl":"http://Organization/123456","resource":{"resourceType":"Organization","id":"123456","meta":{"profile":["http://hl7.org/fhir/us/qicore/StructureDefinition/qicore-organization"]},"identifier":[{"use":"temp","system":"urn:oid:2.16.840.1.113883.4.4","value":"21-3259825"}],"active":true,"type":[{"coding":[{"system":"http://terminology.hl7.org/CodeSystem/organization-type","code":"pay","display":"Payer"}]}],"name":"Blue Cross Blue Shield of Texas","telecom":[{"system":"phone","value":"(+1) 972-766-6900"}],"address":[{"use":"billing","type":"postal","line":["P.O. Box 660044"],"city":"Dallas","state":"TX","postalCode":"75266-0044","country":"USA"}]}},{"fullUrl":"http://Practitioner/123456","resource":{"resourceType":"Practitioner","id":"practitioner-123456","meta":{"profile":["http://hl7.org/fhir/us/qicore/StructureDefinition/qicore-practitioner"]},"identifier":[{"system":"http://hl7.org/fhir/sid/us-npi","value":"123456"}],"name":[{"family":"Evil","prefix":["Dr"]}]}},{"fullUrl":"https://madie.cms.gov/MeasureReport/6385011c4ba3d47c885c02ab/931bd37a-4aed-48b1-a2ab-b6d73c0b07f0","resource":{"resourceType":"MeasureReport","id":"65c99409-1f15-474e-8db1-cc3b84502211","meta":{"profile":["http://hl7.org/fhir/us/cqfmeasures/StructureDefinition/test-case-cqfm"]},"contained":[{"resourceType":"Parameters","id":"LT24beforeAndLT24after-parameters","parameter":[{"name":"subject","valueString":"931bd37a-4aed-48b1-a2ab-b6d73c0b07f0"}]}],"extension":[{"url":"http://hl7.org/fhir/us/cqfmeasures/StructureDefinition/cqfm-inputParameters","valueReference":{"reference":"#LT24beforeAndLT24after-parameters"}},{"url":"http://hl7.org/fhir/us/cqfmeasures/StructureDefinition/cqfm-testCaseDescription","valueMarkdown":"Both values are within the timing window but we only take the first"}],"modifierExtension":[{"url":"http://hl7.org/fhir/us/cqfmeasures/StructureDefinition/cqfm-isTestCase","valueBoolean":true}],"status":"complete","type":"individual","measure":"http://ecqi.healthit.gov/ecqms/Measure/HybridHospitalWideMortalityFHIR","period":{"start":"2024-07-01","end":"2025-06-30"},"group":[{"population":[{"code":{"coding":[{"system":"http://terminology.hl7.org/CodeSystem/measure-population","code":"initial-population","display":"Initial Population"}]},"count":1}]}],"evaluatedResource":[{"reference":"https://madie.cms.gov/Patient/931bd37a-4aed-48b1-a2ab-b6d73c0b07f0"},{"reference":"Encounter/5e064fcb9350f90000fe2537"},{"reference":"Coverage/5f99693eb977ef0000c02d5c"},{"reference":"Observation/5b55f69ab84846558c53bb54"},{"reference":"Observation/5b55f69ab84846558c53bb56"},{"reference":"Organization/123456"},{"reference":"Practitioner/practitioner-123456"}]}}]},"request":{"method":"PUT","url":"Bundle/63ec096bccb3770120fea062"}}]}