{"resourceType":"Bundle","id":"tests-dcf6613c-e366-43a9-9de9-9319e03a2981-bundle","type":"transaction","entry":[{"resource":{"resourceType":"Bundle","id":"63ec0965ccb3770120fe9b07","type":"collection","entry":[{"fullUrl":"https://madie.cms.gov/Patient/dcf6613c-e366-43a9-9de9-9319e03a2981","resource":{"resourceType":"Patient","id":"dcf6613c-e366-43a9-9de9-9319e03a2981","meta":{"profile":["http://hl7.org/fhir/us/qicore/StructureDefinition/qicore-patient"]},"text":{"status":"generated","div":"<div xmlns=\"http://www.w3.org/1999/xhtml\"><div class=\"hapiHeaderText\">GT2after_relevantPeriod <b>TEMPFAIL </b></div><table class=\"hapiPropertyTable\"><tbody><tr><td>Identifier</td><td>cf7574e0b0359d44c480900ab191162d228d27f86315407c0dffcae5d072e7d9</td></tr><tr><td>Date of birth</td><td><span>15 June 1956</span></td></tr></tbody></table></div>"},"extension":[{"url":"http://hl7.org/fhir/us/core/StructureDefinition/us-core-race","extension":[{"url":"ombCategory","valueCoding":{"system":"urn:oid:2.16.840.1.113883.6.238","code":"1002-5","display":"American Indian or Alaska Native","userSelected":true}},{"url":"text","valueString":"American Indian or Alaska Native"}]},{"url":"http://hl7.org/fhir/us/core/StructureDefinition/us-core-ethnicity","extension":[{"url":"ombCategory","valueCoding":{"system":"urn:oid:2.16.840.1.113883.6.238","code":"2186-5","display":"Not Hispanic or Latino","userSelected":true}},{"url":"text","valueString":"Not Hispanic or Latino"}]}],"identifier":[{"type":{"coding":[{"system":"http://terminology.hl7.org/CodeSystem/v2-0203","code":"MR"}]},"system":"https://bonnie-fhir.healthit.gov/","value":"63ec0965ccb3770120fe9b07"}],"active":true,"name":[{"use":"usual","family":"TempFail","given":["GT2after_relevantPeriod"]}],"gender":"male","birthDate":"1956-06-15"}},{"fullUrl":"5e06525e9350f90000fe27b9","resource":{"resourceType":"Encounter","id":"5e06525e9350f90000fe27b9","meta":{"profile":["http://hl7.org/fhir/us/qicore/StructureDefinition/qicore-encounter"]},"status":"finished","class":{"system":"http://terminology.hl7.org/CodeSystem/v3-ActCode","code":"NONAC","display":"Nonacute","userSelected":true},"type":[{"coding":[{"system":"http://snomed.info/sct","code":"183452005"}]}],"subject":{"reference":"Patient/dcf6613c-e366-43a9-9de9-9319e03a2981"},"period":{"start":"2024-08-21T08:00:00.000+00:00","end":"2024-08-22T08:15:00.000+00:00"},"length":{"value":1.0,"unit":"days"}}},{"fullUrl":"5f996a2ab977ef0000c02fcc","resource":{"resourceType":"Coverage","id":"5f996a2ab977ef0000c02fcc","meta":{"profile":["http://hl7.org/fhir/us/qicore/StructureDefinition/qicore-coverage"]},"status":"active","type":{"coding":[{"system":"https://nahdo.org/sopt","version":"1.0.1","code":"1","display":"Medicare payer","userSelected":true}]},"beneficiary":{"reference":"Patient/dcf6613c-e366-43a9-9de9-9319e03a2981"},"payor":[{"reference":"Organization/123456"}]}},{"fullUrl":"5b55f78eb84846558c53bc74","resource":{"resourceType":"Observation","id":"5b55f78eb84846558c53bc74","meta":{"profile":["http://hl7.org/fhir/us/qicore/StructureDefinition/qicore-observation"]},"status":"final","category":[{"coding":[{"system":"http://terminology.hl7.org/CodeSystem/observation-category","code":"laboratory","display":"laboratory","userSelected":true}]}],"code":{"coding":[{"system":"http://loinc.org","code":"8310-5"}]},"subject":{"reference":"Patient/dcf6613c-e366-43a9-9de9-9319e03a2981"},"effectiveDateTime":"2024-08-21T10:01:00.000+00:00","valueQuantity":{"value":98.6}}},{"fullUrl":"http://Organization/123456","resource":{"resourceType":"Organization","id":"123456","meta":{"profile":["http://hl7.org/fhir/us/qicore/StructureDefinition/qicore-organization"]},"identifier":[{"use":"temp","system":"urn:oid:2.16.840.1.113883.4.4","value":"21-3259825"}],"active":true,"type":[{"coding":[{"system":"http://terminology.hl7.org/CodeSystem/organization-type","code":"pay","display":"Payer"}]}],"name":"Blue Cross Blue Shield of Texas","telecom":[{"system":"phone","value":"(+1) 972-766-6900"}],"address":[{"use":"billing","type":"postal","line":["P.O. Box 660044"],"city":"Dallas","state":"TX","postalCode":"75266-0044","country":"USA"}]}},{"fullUrl":"http://Practitioner/123456","resource":{"resourceType":"Practitioner","id":"practitioner-123456","meta":{"profile":["http://hl7.org/fhir/us/qicore/StructureDefinition/qicore-practitioner"]},"identifier":[{"system":"http://hl7.org/fhir/sid/us-npi","value":"123456"}],"name":[{"family":"Evil","prefix":["Dr"]}]}},{"fullUrl":"https://madie.cms.gov/MeasureReport/6385011c4ba3d47c885c02ab/dcf6613c-e366-43a9-9de9-9319e03a2981","resource":{"resourceType":"MeasureReport","id":"969c2f0a-2e60-4a93-a9a6-dfe2b29bd870","meta":{"profile":["http://hl7.org/fhir/us/cqfmeasures/StructureDefinition/test-case-cqfm"]},"contained":[{"resourceType":"Parameters","id":"GT2after_relevantPeriod-parameters","parameter":[{"name":"subject","valueString":"dcf6613c-e366-43a9-9de9-9319e03a2981"}]}],"extension":[{"url":"http://hl7.org/fhir/us/cqfmeasures/StructureDefinition/cqfm-inputParameters","valueReference":{"reference":"#GT2after_relevantPeriod-parameters"}},{"url":"http://hl7.org/fhir/us/cqfmeasures/StructureDefinition/cqfm-testCaseDescription","valueMarkdown":"Patient has temp exam more than 2 hours after start of encounter.\nNo temp recorded in results. "}],"modifierExtension":[{"url":"http://hl7.org/fhir/us/cqfmeasures/StructureDefinition/cqfm-isTestCase","valueBoolean":true}],"status":"complete","type":"individual","measure":"http://ecqi.healthit.gov/ecqms/Measure/HybridHospitalWideMortalityFHIR","period":{"start":"2024-07-01","end":"2025-06-30"},"group":[{"population":[{"code":{"coding":[{"system":"http://terminology.hl7.org/CodeSystem/measure-population","code":"initial-population","display":"Initial Population"}]},"count":1}]}],"evaluatedResource":[{"reference":"https://madie.cms.gov/Patient/dcf6613c-e366-43a9-9de9-9319e03a2981"},{"reference":"Encounter/5e06525e9350f90000fe27b9"},{"reference":"Coverage/5f996a2ab977ef0000c02fcc"},{"reference":"Observation/5b55f78eb84846558c53bc74"},{"reference":"Organization/123456"},{"reference":"Practitioner/practitioner-123456"}]}}]},"request":{"method":"PUT","url":"Bundle/63ec0965ccb3770120fe9b07"}}]}