{
  "id": "DENEXPassCMPduringEncIPDay1",
  "resourceType": "Bundle",
  "type": "collection",
  "entry": [
    {
      "fullUrl": "DENEXPassCMPduringEncIPDay1",
      "resource": {
        "id": "DENEXPassCMPduringEncIPDay1",
        "resourceType": "Patient",
        "meta": {
          "profile": [
            "http://hl7.org/fhir/us/qicore/StructureDefinition/qicore-patient"
          ]
        },
        "text": {
          "status": "generated",
          "div": "<div xmlns=\"http://www.w3.org/1999/xhtml\"><div class=\"hapiHeaderText\">CMP=1Day_DuringEncIP <b>DENEXPASS </b></div><table class=\"hapiPropertyTable\"><tbody><tr><td>Identifier</td><td>912400d032c570bbcae9bbdbf6e22fb5</td></tr><tr><td>Date of birth</td><td><span>26 September 1975</span></td></tr></tbody></table></div>"
        },
        "extension": [
          {
            "extension": [
              {
                "url": "ombCategory",
                "valueCoding": {
                  "system": "urn:oid:2.16.840.1.113883.6.238",
                  "code": "2054-5",
                  "display": "Black or African American",
                  "userSelected": true
                }
              },
              {
                "url": "text",
                "valueString": "Black or African American"
              }
            ],
            "url": "http://hl7.org/fhir/us/core/StructureDefinition/us-core-race"
          },
          {
            "extension": [
              {
                "url": "ombCategory",
                "valueCoding": {
                  "system": "urn:oid:2.16.840.1.113883.6.238",
                  "code": "2186-5",
                  "display": "Not Hispanic or Latino",
                  "userSelected": true
                }
              },
              {
                "url": "text",
                "valueString": "Not Hispanic or Latino"
              }
            ],
            "url": "http://hl7.org/fhir/us/core/StructureDefinition/us-core-ethnicity"
          }
        ],
        "identifier": [
          {
            "type": {
              "coding": [
                {
                  "system": "http://terminology.hl7.org/CodeSystem/v2-0203",
                  "code": "MR"
                }
              ]
            },
            "system": "https://bonnie-fhir.healthit.gov/",
            "value": "DENEXPassCMPduringEncIPDay1"
          }
        ],
        "active": true,
        "name": [
          {
            "use": "usual",
            "family": "DENEXPass",
            "given": [
              "CMP=1Day_DuringEncIP"
            ]
          }
        ],
        "gender": "female",
        "birthDate": "1975-09-26"
      }
    },
    {
      "fullUrl": "5c954892b848462de0ae61eb",
      "resource": {
        "id": "5c954892b848462de0ae61eb",
        "resourceType": "Encounter",
        "meta": {
          "profile": [
            "http://hl7.org/fhir/us/qicore/StructureDefinition/qicore-encounter"
          ]
        },        
        "status": "finished",
        "class": {
          "system": "http://terminology.hl7.org/CodeSystem/v3-ActCode",
          "code": "EMER",
          "display": "emergency",
          "userSelected": true
        },
        "type": [
          {
            "coding": [
              {
                "system": "http://snomed.info/sct",
                "code": "4525004"
              }
            ]
          }
        ],
        "subject": {
          "reference": "Patient/DENEXPassCMPduringEncIPDay1"
        },
        "period": {
          "start": "2022-10-10T04:00:00+00:00",
          "end": "2022-10-10T06:15:00+00:00"
        },
        "length": {
          "value": 0.0,
          "unit": "days"
        }
      }
    },
    {
      "fullUrl": "5c954892b848462de0ae61ec",
      "resource": {
        "id": "5c954892b848462de0ae61ec",
        "resourceType": "Encounter",
        "meta": {
          "profile": [
            "http://hl7.org/fhir/us/qicore/StructureDefinition/qicore-encounter"
          ]
        },
        "status": "finished",
        "class": {
          "system": "http://terminology.hl7.org/CodeSystem/v3-ActCode",
          "code": "IMP",
          "display": "inpatient encounter",
          "userSelected": true
        },
        "type": [
          {
            "coding": [
              {
                "system": "http://snomed.info/sct",
                "code": "32485007"
              }
            ]
          }
        ],
        "subject": {
          "reference": "Patient/DENEXPassCMPduringEncIPDay1"
        },
        "period": {
          "start": "2022-10-10T06:16:00+00:00",
          "end": "2022-10-12T06:31:00+00:00"
        },
        "length": {
          "value": 2.0,
          "unit": "days"
        },
        "diagnosis": [
          {
            "condition": {
              "reference": "Condition/ischemic-stroke-8a9d"
            },
            "use": {
              "coding": [
                {
                  "system": "http://snomed.info/sct",
                  "code": "111297002",
                  "display": "Ischemic Stroke"
                }
              ]
            },
            "rank": 1
          }
        ]
      }
    },
    {
      "fullUrl": "5c954892b848462de0ae61ee",
      "resource": {
        "id": "5c954892b848462de0ae61ee",
        "resourceType": "Procedure",
        "meta": {
          "profile": [
            "http://hl7.org/fhir/us/qicore/StructureDefinition/qicore-procedure"
          ]
        },
        "status": "completed",
        "code": {
          "coding": [
            {
              "system": "http://snomed.info/sct",
              "code": "133918004"
            }
          ]
        },
        "subject": {
          "reference": "Patient/DENEXPassCMPduringEncIPDay1"
        },
        "performedPeriod": {
          "start": "2022-10-11T23:58:00+00:00",
          "end": "2022-10-11T23:59:00+00:00"
        }
      }
    },
    {
      "fullUrl": "5e20a3681c76ba6c5896ebc9",
      "resource": {
        "id": "5e20a3681c76ba6c5896ebc9",
        "resourceType": "Coverage",
        "meta": {
          "profile": [
            "http://hl7.org/fhir/us/qicore/StructureDefinition/qicore-coverage"
          ]
        },
        "status": "active",
    		"payor": [{
          "reference": "Patient/DENEXPassCMPduringEncIPDay1"
        }],
        "beneficiary": {
          "reference": "Patient/DENEXPassCMPduringEncIPDay1"
        },
        "period": {
          "start": "1975-09-26T08:00:00+00:00"
        }
      }
    },
    {
      "fullUrl": "ischemic-stroke-8a9d",
      "resource": {
        "id": "ischemic-stroke-8a9d",
        "resourceType": "Condition",
        "meta": {
          "profile": [
            "http://hl7.org/fhir/us/qicore/StructureDefinition/qicore-condition"
          ]
        },
        "code": {
          "coding": [
            {
              "system": "http://snomed.info/sct",
              "version": "2020-09",
              "code": "111297002",
              "display": "Nonparalytic stroke (disorder)",
              "userSelected": true
            }
          ]
        },
    	  "subject": {
    		"reference": "Patient/DENEXPassCMPduringEncIPDay1"
    	  },
        "recordedDate": "2022-08-13T08:00:00.000+00:00"
      }
    }
  ]
}