{
  "id": "NUMERPassNoWarfarinIPMedReasonDayAfterAnes",
  "resourceType": "Bundle",
  "type": "collection",
  "entry": [
    {
      "fullUrl": "NUMERPassNoWarfarinIPMedReasonDayAfterAnes",
      "resource": {
        "id": "NUMERPassNoWarfarinIPMedReasonDayAfterAnes",
        "meta": {
          "profile": [
            "http://hl7.org/fhir/us/qicore/StructureDefinition/qicore-patient"
          ]
        },
        "resourceType": "Patient",
        "text": {
          "status": "generated",
          "div": "<div xmlns=\"http://www.w3.org/1999/xhtml\"><div class=\"hapiHeaderText\">NoWarfarinIPCMedReasonDayAfterAnes <b>NUMERPASS </b></div><table class=\"hapiPropertyTable\"><tbody><tr><td>Identifier</td><td>1a242af58654ae43d5a5e49b694ec9ce</td></tr><tr><td>Date of birth</td><td><span>03 March 1974</span></td></tr></tbody></table></div>"
        },
        "extension": [
          {
            "extension": [
              {
                "url": "ombCategory",
                "valueCoding": {
                  "system": "urn:oid:2.16.840.1.113883.6.238",
                  "code": "1002-5",
                  "display": "American Indian or Alaska Native",
                  "userSelected": true
                }
              },
              {
                "url": "text",
                "valueString": "American Indian or Alaska Native"
              }
            ],
            "url": "http://hl7.org/fhir/us/core/StructureDefinition/us-core-race"
          },
          {
            "extension": [
              {
                "url": "ombCategory",
                "valueCoding": {
                  "system": "urn:oid:2.16.840.1.113883.6.238",
                  "code": "2135-2",
                  "display": "Hispanic or Latino",
                  "userSelected": true
                }
              },
              {
                "url": "text",
                "valueString": "Hispanic or Latino"
              }
            ],
            "url": "http://hl7.org/fhir/us/core/StructureDefinition/us-core-ethnicity"
          }
        ],
        "identifier": [
          {
            "type": {
              "coding": [
                {
                  "system": "http://terminology.hl7.org/CodeSystem/v2-0203",
                  "code": "MR"
                }
              ]
            },
            "system": "https://bonnie-fhir.healthit.gov/",
            "value": "NUMERPassNoWarfarinIPMedReasonDayAfterAnes"
          }
        ],
        "active": true,
        "name": [
          {
            "use": "usual",
            "family": "NUMERPass",
            "given": [
              "NoWarfarinIPCMedReasonDayAfterAnes"
            ]
          }
        ],
        "gender": "female",
        "birthDate": "1974-03-03"
      }
    },
    {
      "fullUrl": "5ce80970b848467c29eaf267",
      "resource": {
        "id": "5ce80970b848467c29eaf267",
        "resourceType": "Encounter",
        "status": "finished",
        "meta": {
          "profile": [
            "http://hl7.org/fhir/us/qicore/StructureDefinition/qicore-encounter"
          ]
          },
        "class": {
          "system": "http://terminology.hl7.org/CodeSystem/v3-ActCode",
          "code": "IMP"
        },
        "type": [
          {
            "coding": [
              {
                "system": "http://snomed.info/sct",
                "code": "8715000"
              }
            ]
          }
        ],
        "subject": {
          "reference": "Patient/NUMERPassNoWarfarinIPMedReasonDayAfterAnes"
        },
        "period": {
          "start": "2022-12-04T08:00:00+00:00",
          "end": "2022-12-30T08:15:00+00:00"
        },
        "length": {
          "value": 26.0,
          "unit": "days"
        },
        "location": [
          {
            "location": {
              "reference": "Location/intensive-care-unit-6446"
            },
            "period": {
              "start": "2022-12-06T08:00:00.000+00:00",
              "end": "2022-12-12T08:15:00.000+00:00"
            }
          }
        ]
      }
    },
    {
      "fullUrl": "5fa040f31c76ba66d9958f82",
      "resource": {
        "id": "5fa040f31c76ba66d9958f82",
        "resourceType": "Coverage",
        "beneficiary": {
          "reference": "Patient/NUMERPassNoWarfarinIPMedReasonDayAfterAnes"
        },
        "status": "active",
        "payor": [
                {"reference": "Patient/NUMERPassNoWarfarinIPMedReasonDayAfterAnes"}
        ],
        "period": {
          "start": "1974-03-03T08:00:00+00:00"
        }
      }
    },
    {
      "fullUrl": "intensive-care-unit-6446",
      "resource": {
        "id": "intensive-care-unit-6446",
        "resourceType": "Location",
        "type": [
          {
            "coding": [
              {
                "system": "https://www.cdc.gov/nhsn/cdaportal/terminology/codesystem/hsloc.html",
                "version": "2020",
                "code": "1025-6",
                "display": "Trauma Critical Care",
                "userSelected": true
              }
            ]
          }
        ]
      }
    },
    {
      "fullUrl": "warfarin-6447",
      "resource": {
        "id": "warfarin-6447",
        "resourceType": "MedicationAdministration",
        "extension": [
          {
            "url": "http://hl7.org/fhir/us/qicore/StructureDefinition/qicore-notDoneValueSet",
            "valueCodeableConcept": {
              "coding": [
                {
                  "system": "http://snomed.info/sct",
                  "code": "183932001",
                  "display": "Procedure contraindicated (situation)",
                  "userSelected": true
                }
              ]
            }
          },
          {
            "url": "http://hl7.org/fhir/us/qicore/StructureDefinition/qicore-recorded",
            "valueDateTime": "2022-12-08T11:30:00.000+00:00"
          }
        ],
        "subject": {
          "reference": "Patient/NUMERPassNoWarfarinIPMedReasonDayAfterAnes"
        },
        "status": "not-done",
        "statusReason": [
          {
            "coding": [
              {
                "system": "http://snomed.info/sct",
                "code": "183932001",
                "display": "Procedure contraindicated (situation)",
                "userSelected": true
              }
            ]
          }
        ],
        "medicationCodeableConcept": {
          "coding": [
            {
              "system": "http://www.nlm.nih.gov/research/umls/rxnorm",
              "code": "855288",
              "display": "warfarin sodium 1 MG Oral Tablet",
              "userSelected": true
            }
          ]
        },
        "effectiveDateTime": "2022-12-08T11:30:00.000+00:00"
      }
    },
    {
      "fullUrl": "intermittent-pneumatic-compression-devices-ipc-6448",
      "resource": {
        "id": "intermittent-pneumatic-compression-devices-ipc-6448",
        "resourceType": "ServiceRequest",
        "subject": {
          "reference": "Patient/NUMERPassNoWarfarinIPMedReasonDayAfterAnes"
        },
        "extension": [
          {
            "url": "http://hl7.org/fhir/us/qicore/StructureDefinition/qicore-notDoneValueSet",
            "valueCodeableConcept": {
              "coding": [
                {
                  "system": "http://snomed.info/sct",
                  "code": "183932001",
                  "display": "Procedure contraindicated (situation)",
                  "userSelected": true
                }
              ]
            }
          }
        ],
        "status": "completed",
        "doNotPerform": true,
        "code": {
          "coding": [
            {
              "system": "http://snomed.info/sct",
              "version": "2021-09",
              "code": "428411000124104",
              "display": "Intermittent pneumatic compression boot (physical object)",
              "userSelected": true
            }
          ]
        },
        "authoredOn": "2022-12-08T11:30:00.000+00:00",
        "reasonCode": [
          {
            "coding": [
              {
                "system": "http://snomed.info/sct",
                "code": "183932001",
                "display": "Procedure contraindicated (situation)",
                "userSelected": true
              }
            ]
          }
        ]
      }
    },
    {
      "fullUrl": "general-or-neuraxial-anesthesia-6449",
      "resource": {
        "id": "general-or-neuraxial-anesthesia-6449",
        "resourceType": "Procedure",
        "subject": {
          "reference": "Patient/NUMERPassNoWarfarinIPMedReasonDayAfterAnes"
        },
        "status": "completed",
        "code": {
          "coding": [
            {
              "system": "http://snomed.info/sct",
              "version": "2021-09",
              "code": "112943005",
              "display": "Epidural injection of anesthetic substance, diagnostic, caudal, continuous (procedure)",
              "userSelected": true
            },
            {
              "system": "http://www.icd10data.com/icd10pcs",
              "code": "3E030FZ",
              "userSelected": true
            },
            {
              "system": "http://snomed.info/sct",
              "code": "18946005",
              "userSelected": true
            }
          ]
        },
        "performedDateTime": "2022-12-07T11:15:00.000+00:00"
      }
    }
  ]
}