{
  "resourceType": "Bundle",
  "id": "64d103e3dbe0b146f23e6561",
  "type": "collection",
  "entry": [ {
    "fullUrl": "https://madie.cms.gov/Patient/5cbf01d6-c69b-49d9-9df3-f5c711743426",
    "resource": {
      "resourceType": "Patient",
      "id": "5cbf01d6-c69b-49d9-9df3-f5c711743426",
      "meta": {
        "profile": [ "http://hl7.org/fhir/us/qicore/StructureDefinition/qicore-patient" ]
      },
      "extension": [ {
        "url": "http://hl7.org/fhir/us/core/StructureDefinition/us-core-race",
        "extension": [ {
          "url": "ombCategory",
          "valueCoding": {
            "system": "urn:oid:2.16.840.1.113883.6.238",
            "code": "1002-5",
            "display": "American Indian or Alaska Native",
            "userSelected": true
          }
        }, {
          "url": "text",
          "valueString": "American Indian or Alaska Native"
        } ]
      }, {
        "url": "http://hl7.org/fhir/us/core/StructureDefinition/us-core-ethnicity",
        "extension": [ {
          "url": "ombCategory",
          "valueCoding": {
            "system": "urn:oid:2.16.840.1.113883.6.238",
            "code": "2186-5",
            "display": "Not Hispanic or Latino",
            "userSelected": true
          }
        }, {
          "url": "text",
          "valueString": "Not Hispanic or Latino"
        } ]
      } ],
      "identifier": [ {
        "type": {
          "coding": [ {
            "system": "http://terminology.hl7.org/CodeSystem/v2-0203",
            "code": "MR"
          } ]
        },
        "system": "https://bonnie-fhir.healthit.gov/",
        "value": "64d103e3dbe0b146f23e6561"
      } ],
      "name": [ {
        "family": "NUMPass",
        "given": [ "DxandRiskAssmtInBOTHEnc" ]
      } ],
      "gender": "female",
      "birthDate": "2002-01-02"
    }
  }, {
    "fullUrl": "psych-visit-psychotherapy-6562",
    "resource": {
      "resourceType": "Encounter",
      "id": "psych-visit-psychotherapy-6562",
      "meta": {
        "profile": [ "http://hl7.org/fhir/us/qicore/StructureDefinition/qicore-encounter" ]
      },
      "status": "finished",
      "class": {
        "system": "http://terminology.hl7.org/CodeSystem/v3-ActCode",
        "code": "AMB",
        "display": "ambulatory",
        "userSelected": true
      },
      "type": [ {
        "coding": [ {
          "system": "http://www.ama-assn.org/go/cpt",
          "code": "90832",
          "userSelected": true
        } ]
      } ],
      "subject": {
        "reference": "Patient/5cbf01d6-c69b-49d9-9df3-f5c711743426"
      },
      "period": {
        "start": "2024-03-13T08:01:00.000+00:00",
        "end": "2024-03-13T08:32:00.000+00:00"
      },
      "reasonCode": [ {
        "coding": [ {
          "system": "http://snomed.info/sct",
          "version": "2022-09",
          "code": "10811161000119107",
          "display": "Major depressive disorder in mother complicating pregnancy (disorder)",
          "userSelected": true
        } ]
      } ],
      "diagnosis": [ {
        "condition": {
          "reference": "Condition/major-depressive-disorder-active-6564"
        },
        "use": {
          "coding": [ {
            "system": "http://snomed.info/sct",
            "version": "2022-09",
            "code": "10811161000119107",
            "display": "Major depressive disorder in mother complicating pregnancy (disorder)",
            "userSelected": true
          } ]
        }
      } ]
    }
  }, {
    "fullUrl": "outpatient-consultation-6563",
    "resource": {
      "resourceType": "Encounter",
      "id": "outpatient-consultation-6563",
      "meta": {
        "profile": [ "http://hl7.org/fhir/us/qicore/StructureDefinition/qicore-encounter" ]
      },
      "status": "finished",
      "class": {
        "system": "http://terminology.hl7.org/CodeSystem/v3-ActCode",
        "code": "AMB",
        "display": "ambulatory",
        "userSelected": true
      },
      "type": [ {
        "coding": [ {
          "system": "http://www.ama-assn.org/go/cpt",
          "code": "99243",
          "userSelected": true
        } ]
      } ],
      "subject": {
        "reference": "Patient/5cbf01d6-c69b-49d9-9df3-f5c711743426"
      },
      "period": {
        "start": "2024-12-05T08:00:00.000+00:00",
        "end": "2024-12-05T08:15:00.000+00:00"
      },
      "reasonCode": [ {
        "coding": [ {
          "system": "http://snomed.info/sct",
          "version": "2022-09",
          "code": "10811161000119107",
          "display": "Major depressive disorder in mother complicating pregnancy (disorder)",
          "userSelected": true
        } ]
      } ],
      "diagnosis": [ {
        "condition": {
          "reference": "Condition/major-depressive-disorder-active-6565"
        },
        "use": {
          "coding": [ {
            "system": "http://snomed.info/sct",
            "version": "2022-09",
            "code": "10811161000119107",
            "display": "Major depressive disorder in mother complicating pregnancy (disorder)",
            "userSelected": true
          } ]
        }
      } ]
    }
  }, {
    "fullUrl": "major-depressive-disorder-active-6564",
    "resource": {
      "resourceType": "Condition",
      "id": "major-depressive-disorder-active-6564",
      "meta": {
        "profile": [ "http://hl7.org/fhir/us/qicore/StructureDefinition/qicore-condition" ]
      },
      "category": [ {
        "coding": [ {
          "system": "http://terminology.hl7.org/CodeSystem/condition-category",
          "code": "encounter-diagnosis",
          "display": "Encounter Diagnosis"
        } ]
      } ],
      "code": {
        "coding": [ {
          "system": "http://snomed.info/sct",
          "version": "2022-09",
          "code": "10811121000119102",
          "display": "Major depressive disorder in mother complicating childbirth (disorder)",
          "userSelected": true
        } ]
      },
      "subject": {
        "reference": "Patient/5cbf01d6-c69b-49d9-9df3-f5c711743426"
      },
      "recordedDate": "2024-03-13T08:01:00.000+00:00"
    }
  }, {
    "fullUrl": "major-depressive-disorder-active-6565",
    "resource": {
      "resourceType": "Condition",
      "id": "major-depressive-disorder-active-6565",
      "meta": {
        "profile": [ "http://hl7.org/fhir/us/qicore/StructureDefinition/qicore-condition" ]
      },
      "category": [ {
        "coding": [ {
          "system": "http://terminology.hl7.org/CodeSystem/condition-category",
          "code": "encounter-diagnosis",
          "display": "Encounter Diagnosis"
        } ]
      } ],
      "code": {
        "coding": [ {
          "system": "http://snomed.info/sct",
          "version": "2022-09",
          "code": "10811121000119102",
          "display": "Major depressive disorder in mother complicating childbirth (disorder)",
          "userSelected": true
        } ]
      },
      "subject": {
        "reference": "Patient/5cbf01d6-c69b-49d9-9df3-f5c711743426"
      },
      "recordedDate": "2024-12-05T08:00:00.000+00:00"
    }
  }, {
    "fullUrl": "suicide-risk-assessment-procedure-6567",
    "resource": {
      "resourceType": "Procedure",
      "id": "suicide-risk-assessment-procedure-6567",
      "meta": {
        "profile": [ "http://hl7.org/fhir/us/qicore/StructureDefinition/qicore-procedure" ]
      },
      "extension": [ {
        "url": "http://hl7.org/fhir/us/qicore/StructureDefinition/qicore-recorded",
        "valueDateTime": "2024-03-13T08:02:00.000Z"
      } ],
      "status": "completed",
      "code": {
        "coding": [ {
          "system": "http://snomed.info/sct",
          "code": "225337009",
          "display": "Suicide risk assessment (procedure)",
          "userSelected": true
        } ]
      },
      "subject": {
        "reference": "Patient/5cbf01d6-c69b-49d9-9df3-f5c711743426"
      },
      "performedDateTime": "2024-03-13T08:02:00.000+00:00"
    }
  }, {
    "fullUrl": "suicide-risk-assessment-procedure-6568",
    "resource": {
      "resourceType": "Procedure",
      "id": "suicide-risk-assessment-procedure-6568",
      "meta": {
        "profile": [ "http://hl7.org/fhir/us/qicore/StructureDefinition/qicore-procedure" ]
      },
      "extension": [ {
        "url": "http://hl7.org/fhir/us/qicore/StructureDefinition/qicore-recorded",
        "valueDateTime": "2024-12-05T08:05:00.000Z"
      } ],
      "status": "completed",
      "code": {
        "coding": [ {
          "system": "http://snomed.info/sct",
          "code": "225337009",
          "display": "Suicide risk assessment (procedure)",
          "userSelected": true
        } ]
      },
      "subject": {
        "reference": "Patient/5cbf01d6-c69b-49d9-9df3-f5c711743426"
      },
      "performedDateTime": "2024-12-05T08:05:00.000+00:00"
    }
  }, {
    "fullUrl": "http://coverage/1",
    "resource": {
      "resourceType": "Coverage",
      "id": "1",
      "meta": {
        "profile": [ "http://hl7.org/fhir/us/qicore/StructureDefinition/qicore-coverage" ]
      },
      "status": "active",
      "beneficiary": {
        "reference": "Patient/5cbf01d6-c69b-49d9-9df3-f5c711743426"
      },
      "payor": [ {
        "reference": "Organization/123456"
      } ]
    }
  }, {
    "fullUrl": "http://Organization/123456",
    "resource": {
      "resourceType": "Organization",
      "id": "123456",
      "meta": {
        "profile": [ "http://hl7.org/fhir/us/qicore/StructureDefinition/qicore-organization" ]
      },
      "identifier": [ {
        "use": "temp",
        "system": "urn:oid:2.16.840.1.113883.4.4",
        "value": "21-3259825"
      } ],
      "active": true,
      "type": [ {
        "coding": [ {
          "system": "http://terminology.hl7.org/CodeSystem/organization-type",
          "code": "pay",
          "display": "Payer"
        } ]
      } ],
      "name": "Blue Cross Blue Shield of Texas",
      "telecom": [ {
        "system": "phone",
        "value": "(+1) 972-766-6900"
      } ],
      "address": [ {
        "use": "billing",
        "type": "postal",
        "line": [ "P.O. Box 660044" ],
        "city": "Dallas",
        "state": "TX",
        "postalCode": "75266-0044",
        "country": "USA"
      } ]
    }
  }, {
    "fullUrl": "http://Practitioner/123456",
    "resource": {
      "resourceType": "Practitioner",
      "id": "practitioner-123456",
      "meta": {
        "profile": [ "http://hl7.org/fhir/us/qicore/StructureDefinition/qicore-practitioner" ]
      },
      "identifier": [ {
        "system": "http://hl7.org/fhir/sid/us-npi",
        "value": "123456"
      } ],
      "name": [ {
        "family": "Evil",
        "prefix": [ "Dr" ]
      } ]
    }
  }, {
    "fullUrl": "https://madie.cms.gov/MeasureReport/6385047a4ba3d47c885c02c5/5cbf01d6-c69b-49d9-9df3-f5c711743426",
    "resource": {
      "resourceType": "MeasureReport",
      "id": "c1989a56-8183-4547-901b-e1490d3b3a24",
      "meta": {
        "profile": [ "http://hl7.org/fhir/us/cqfmeasures/StructureDefinition/test-case-cqfm" ]
      },
      "contained": [ {
        "resourceType": "Parameters",
        "id": "DxandRiskAssmtInBOTHEnc-parameters",
        "parameter": [ {
          "name": "subject",
          "valueString": "5cbf01d6-c69b-49d9-9df3-f5c711743426"
        } ]
      } ],
      "extension": [ {
        "url": "http://hl7.org/fhir/us/cqfmeasures/StructureDefinition/cqfm-inputParameters",
        "valueReference": {
          "reference": "#DxandRiskAssmtInBOTHEnc-parameters"
        }
      }, {
        "url": "http://hl7.org/fhir/us/cqfmeasures/StructureDefinition/cqfm-testCaseDescription",
        "valueMarkdown": "Patient with Diagnosis: Major Depressive Disorder-Active and \nIntervention Performed: Suicide Risk Assessment performed during Encounter Performed: Psych Visit Psychotherapy and Outpatient Consultation "
      } ],
      "modifierExtension": [ {
        "url": "http://hl7.org/fhir/us/cqfmeasures/StructureDefinition/cqfm-isTestCase",
        "valueBoolean": true
      } ],
      "status": "complete",
      "type": "individual",
      "measure": "http://ecqi.healthit.gov/ecqms/Measure/AdultMajorDepressiveDisorderMDDSuicideRiskAssessmentFHIR",
      "period": {
        "start": "2024-01-01",
        "end": "2024-12-31"
      },
      "group": [ {
        "population": [ {
          "code": {
            "coding": [ {
              "system": "http://terminology.hl7.org/CodeSystem/measure-population",
              "code": "initial-population",
              "display": "Initial Population"
            } ]
          },
          "count": 2
        }, {
          "code": {
            "coding": [ {
              "system": "http://terminology.hl7.org/CodeSystem/measure-population",
              "code": "denominator",
              "display": "Denominator"
            } ]
          },
          "count": 2
        }, {
          "code": {
            "coding": [ {
              "system": "http://terminology.hl7.org/CodeSystem/measure-population",
              "code": "numerator",
              "display": "Numerator"
            } ]
          },
          "count": 2
        } ]
      } ],
      "evaluatedResource": [ {
        "reference": "https://madie.cms.gov/Patient/5cbf01d6-c69b-49d9-9df3-f5c711743426"
      }, {
        "reference": "Encounter/psych-visit-psychotherapy-6562"
      }, {
        "reference": "Encounter/outpatient-consultation-6563"
      }, {
        "reference": "Condition/major-depressive-disorder-active-6564"
      }, {
        "reference": "Condition/major-depressive-disorder-active-6565"
      }, {
        "reference": "Procedure/suicide-risk-assessment-procedure-6567"
      }, {
        "reference": "Procedure/suicide-risk-assessment-procedure-6568"
      }, {
        "reference": "Coverage/1"
      }, {
        "reference": "Organization/123456"
      }, {
        "reference": "Practitioner/practitioner-123456"
      } ]
    }
  } ]
}