{
  "resourceType": "Bundle",
  "id": "6109654b98086b538055ad2b",
  "type": "collection",
  "entry": [ {
    "fullUrl": "https://madie.cms.gov/Patient/9d983260-2a08-4ced-9a61-173f832e8160",
    "resource": {
      "resourceType": "Patient",
      "id": "9d983260-2a08-4ced-9a61-173f832e8160",
      "meta": {
        "profile": [ "http://hl7.org/fhir/us/qicore/StructureDefinition/qicore-patient" ]
      },
      "text": {
        "status": "generated",
        "div": "<div xmlns=\"http://www.w3.org/1999/xhtml\"><div class=\"hapiHeaderText\">3Enc3RiskAssess <b>NUMERPASS </b></div><table class=\"hapiPropertyTable\"><tbody><tr><td>Identifier</td><td>c052c5065f3f967d43fe5efa9baece6f63cf560c4921a1fcbc563eb5a7efd1a5</td></tr><tr><td>Date of birth</td><td><span>02 January 1990</span></td></tr></tbody></table></div>"
      },
      "extension": [ {
        "url": "http://hl7.org/fhir/us/core/StructureDefinition/us-core-race",
        "extension": [ {
          "url": "ombCategory",
          "valueCoding": {
            "system": "urn:oid:2.16.840.1.113883.6.238",
            "code": "2106-3",
            "display": "White",
            "userSelected": true
          }
        }, {
          "url": "text",
          "valueString": "White"
        } ]
      }, {
        "url": "http://hl7.org/fhir/us/core/StructureDefinition/us-core-ethnicity",
        "extension": [ {
          "url": "ombCategory",
          "valueCoding": {
            "system": "urn:oid:2.16.840.1.113883.6.238",
            "code": "2186-5",
            "display": "Not Hispanic or Latino",
            "userSelected": true
          }
        }, {
          "url": "text",
          "valueString": "Not Hispanic or Latino"
        } ]
      } ],
      "identifier": [ {
        "type": {
          "coding": [ {
            "system": "http://terminology.hl7.org/CodeSystem/v2-0203",
            "code": "MR"
          } ]
        },
        "system": "https://bonnie-fhir.healthit.gov/",
        "value": "6109654b98086b538055ad2b"
      } ],
      "active": true,
      "name": [ {
        "use": "usual",
        "family": "NUMPass",
        "given": [ "3Enc3RiskAssess " ]
      } ],
      "gender": "female",
      "birthDate": "2002-01-02"
    }
  }, {
    "fullUrl": "5c98fd74b848464ed33ea078",
    "resource": {
      "resourceType": "Encounter",
      "id": "5c98fd74b848464ed33ea078",
      "meta": {
        "profile": [ "http://hl7.org/fhir/us/qicore/StructureDefinition/qicore-encounter" ]
      },
      "status": "finished",
      "class": {
        "system": "http://terminology.hl7.org/CodeSystem/v3-ActCode",
        "code": "AMB",
        "display": "ambulatory",
        "userSelected": true
      },
      "type": [ {
        "coding": [ {
          "system": "http://www.ama-assn.org/go/cpt",
          "code": "90832"
        } ]
      } ],
      "subject": {
        "reference": "Patient/9d983260-2a08-4ced-9a61-173f832e8160"
      },
      "period": {
        "start": "2024-01-01T08:00:00.000+00:00",
        "end": "2024-01-01T08:15:00.000+00:00"
      },
      "length": {
        "value": 0.0,
        "unit": "days"
      },
      "reasonCode": [ {
        "coding": [ {
          "system": "http://snomed.info/sct",
          "version": "2022-09",
          "code": "10811161000119107",
          "display": "Major depressive disorder in mother complicating pregnancy (disorder)",
          "userSelected": true
        } ]
      } ],
      "diagnosis": [ {
        "condition": {
          "reference": "Condition/major-depressive-disorder-active-8bb5"
        },
        "use": {
          "coding": [ {
            "system": "http://snomed.info/sct",
            "version": "2022-09",
            "code": "10811161000119107",
            "display": "Major depressive disorder in mother complicating pregnancy (disorder)",
            "userSelected": true
          } ]
        }
      } ]
    }
  }, {
    "fullUrl": "5c98fd74b848464ed33ea079",
    "resource": {
      "resourceType": "Encounter",
      "id": "5c98fd74b848464ed33ea079",
      "meta": {
        "profile": [ "http://hl7.org/fhir/us/qicore/StructureDefinition/qicore-encounter" ]
      },
      "status": "finished",
      "class": {
        "system": "http://terminology.hl7.org/CodeSystem/v3-ActCode",
        "code": "AMB",
        "display": "ambulatory",
        "userSelected": true
      },
      "type": [ {
        "coding": [ {
          "system": "http://snomed.info/sct",
          "code": "4525004"
        } ]
      } ],
      "subject": {
        "reference": "Patient/9d983260-2a08-4ced-9a61-173f832e8160"
      },
      "period": {
        "start": "2024-04-18T08:00:00.000+00:00",
        "end": "2024-04-18T08:15:00.000+00:00"
      },
      "length": {
        "value": 0.0,
        "unit": "days"
      },
      "reasonCode": [ {
        "coding": [ {
          "system": "http://snomed.info/sct",
          "version": "2022-09",
          "code": "10811161000119107",
          "display": "Major depressive disorder in mother complicating pregnancy (disorder)",
          "userSelected": true
        } ]
      } ],
      "diagnosis": [ {
        "condition": {
          "reference": "Condition/major-depressive-disorder-active-8bb6"
        },
        "use": {
          "coding": [ {
            "system": "http://snomed.info/sct",
            "version": "2022-09",
            "code": "10811161000119107",
            "display": "Major depressive disorder in mother complicating pregnancy (disorder)",
            "userSelected": true
          } ]
        }
      } ]
    }
  }, {
    "fullUrl": "5c98fd74b848464ed33ea07a",
    "resource": {
      "resourceType": "Encounter",
      "id": "5c98fd74b848464ed33ea07a",
      "meta": {
        "profile": [ "http://hl7.org/fhir/us/qicore/StructureDefinition/qicore-encounter" ]
      },
      "status": "finished",
      "class": {
        "system": "http://terminology.hl7.org/CodeSystem/v3-ActCode",
        "code": "AMB",
        "display": "ambulatory",
        "userSelected": true
      },
      "type": [ {
        "coding": [ {
          "system": "http://snomed.info/sct",
          "code": "281036007",
          "userSelected": true
        } ]
      } ],
      "subject": {
        "reference": "Patient/9d983260-2a08-4ced-9a61-173f832e8160"
      },
      "period": {
        "start": "2024-08-05T08:00:00.000+00:00",
        "end": "2024-08-05T08:15:00.000+00:00"
      },
      "length": {
        "value": 0.0,
        "unit": "days"
      },
      "reasonCode": [ {
        "coding": [ {
          "system": "http://snomed.info/sct",
          "version": "2022-09",
          "code": "10811161000119107",
          "display": "Major depressive disorder in mother complicating pregnancy (disorder)",
          "userSelected": true
        } ]
      } ],
      "diagnosis": [ {
        "condition": {
          "reference": "Condition/major-depressive-disorder-active-8bb7"
        },
        "use": {
          "coding": [ {
            "system": "http://snomed.info/sct",
            "version": "2022-09",
            "code": "10811161000119107",
            "display": "Major depressive disorder in mother complicating pregnancy (disorder)",
            "userSelected": true
          } ]
        }
      } ]
    }
  }, {
    "fullUrl": "5c98fd74b848464ed33ea07b",
    "resource": {
      "resourceType": "Encounter",
      "id": "5c98fd74b848464ed33ea07b",
      "meta": {
        "profile": [ "http://hl7.org/fhir/us/qicore/StructureDefinition/qicore-encounter" ]
      },
      "status": "finished",
      "class": {
        "system": "http://terminology.hl7.org/CodeSystem/v3-ActCode",
        "code": "AMB",
        "display": "ambulatory",
        "userSelected": true
      },
      "type": [ {
        "coding": [ {
          "system": "http://www.ama-assn.org/go/cpt",
          "code": "99241"
        } ]
      } ],
      "subject": {
        "reference": "Patient/9d983260-2a08-4ced-9a61-173f832e8160"
      },
      "period": {
        "start": "2024-09-01T08:00:00.000+00:00",
        "end": "2024-09-01T08:15:00.000+00:00"
      },
      "length": {
        "value": 0.0,
        "unit": "days"
      },
      "reasonCode": [ {
        "coding": [ {
          "system": "http://snomed.info/sct",
          "version": "2022-09",
          "code": "10811161000119107",
          "display": "Major depressive disorder in mother complicating pregnancy (disorder)",
          "userSelected": true
        } ]
      } ],
      "diagnosis": [ {
        "condition": {
          "reference": "Condition/major-depressive-disorder-active-8bb8"
        },
        "use": {
          "coding": [ {
            "system": "http://snomed.info/sct",
            "version": "2022-09",
            "code": "10811161000119107",
            "display": "Major depressive disorder in mother complicating pregnancy (disorder)",
            "userSelected": true
          } ]
        }
      } ]
    }
  }, {
    "fullUrl": "5c98fd74b848464ed33ea07c",
    "resource": {
      "resourceType": "Procedure",
      "id": "5c98fd74b848464ed33ea07c",
      "meta": {
        "profile": [ "http://hl7.org/fhir/us/qicore/StructureDefinition/qicore-procedure" ]
      },
      "extension": [ {
        "url": "http://hl7.org/fhir/us/qicore/StructureDefinition/qicore-recorded",
        "valueDateTime": "2024-01-01T08:00:00.000Z"
      } ],
      "status": "completed",
      "code": {
        "coding": [ {
          "system": "http://snomed.info/sct",
          "code": "225337009"
        } ]
      },
      "subject": {
        "reference": "Patient/9d983260-2a08-4ced-9a61-173f832e8160"
      },
      "performedDateTime": "2024-01-01T08:00:00.000+00:00"
    }
  }, {
    "fullUrl": "5c98fd74b848464ed33ea07d",
    "resource": {
      "resourceType": "Procedure",
      "id": "5c98fd74b848464ed33ea07d",
      "meta": {
        "profile": [ "http://hl7.org/fhir/us/qicore/StructureDefinition/qicore-procedure" ]
      },
      "extension": [ {
        "url": "http://hl7.org/fhir/us/qicore/StructureDefinition/qicore-recorded",
        "valueDateTime": "2024-04-18T08:00:00.000Z"
      } ],
      "status": "completed",
      "code": {
        "coding": [ {
          "system": "http://snomed.info/sct",
          "code": "225337009"
        } ]
      },
      "subject": {
        "reference": "Patient/9d983260-2a08-4ced-9a61-173f832e8160"
      },
      "performedDateTime": "2024-04-18T08:00:00.000+00:00"
    }
  }, {
    "fullUrl": "5c98fd74b848464ed33ea07e",
    "resource": {
      "resourceType": "Procedure",
      "id": "5c98fd74b848464ed33ea07e",
      "meta": {
        "profile": [ "http://hl7.org/fhir/us/qicore/StructureDefinition/qicore-procedure" ]
      },
      "extension": [ {
        "url": "http://hl7.org/fhir/us/qicore/StructureDefinition/qicore-recorded",
        "valueDateTime": "2024-08-05T08:00:00.000Z"
      } ],
      "status": "completed",
      "code": {
        "coding": [ {
          "system": "http://snomed.info/sct",
          "code": "225337009"
        } ]
      },
      "subject": {
        "reference": "Patient/9d983260-2a08-4ced-9a61-173f832e8160"
      },
      "performedDateTime": "2024-08-05T08:00:00.000+00:00"
    }
  }, {
    "fullUrl": "5c98fd74b848464ed33ea07f",
    "resource": {
      "resourceType": "Procedure",
      "id": "5c98fd74b848464ed33ea07f",
      "meta": {
        "profile": [ "http://hl7.org/fhir/us/qicore/StructureDefinition/qicore-procedure" ]
      },
      "extension": [ {
        "url": "http://hl7.org/fhir/us/qicore/StructureDefinition/qicore-recorded",
        "valueDateTime": "2024-09-01T08:00:00.000Z"
      } ],
      "status": "completed",
      "code": {
        "coding": [ {
          "system": "http://snomed.info/sct",
          "code": "225337009"
        } ]
      },
      "subject": {
        "reference": "Patient/9d983260-2a08-4ced-9a61-173f832e8160"
      },
      "performedDateTime": "2024-09-01T08:00:00.000+00:00"
    }
  }, {
    "fullUrl": "major-depressive-disorder-active-8bb5",
    "resource": {
      "resourceType": "Condition",
      "id": "major-depressive-disorder-active-8bb5",
      "meta": {
        "profile": [ "http://hl7.org/fhir/us/qicore/StructureDefinition/qicore-condition" ]
      },
      "category": [ {
        "coding": [ {
          "system": "http://terminology.hl7.org/CodeSystem/condition-category",
          "code": "encounter-diagnosis",
          "display": "Encounter Diagnosis"
        } ]
      } ],
      "code": {
        "coding": [ {
          "system": "http://snomed.info/sct",
          "version": "2022-09",
          "code": "10811121000119102",
          "display": "Major depressive disorder in mother complicating childbirth (disorder)",
          "userSelected": true
        } ]
      },
      "subject": {
        "reference": "Patient/9d983260-2a08-4ced-9a61-173f832e8160"
      },
      "recordedDate": "2024-01-01T08:00:00.000+00:00"
    }
  }, {
    "fullUrl": "major-depressive-disorder-active-8bb6",
    "resource": {
      "resourceType": "Condition",
      "id": "major-depressive-disorder-active-8bb6",
      "meta": {
        "profile": [ "http://hl7.org/fhir/us/qicore/StructureDefinition/qicore-condition" ]
      },
      "category": [ {
        "coding": [ {
          "system": "http://terminology.hl7.org/CodeSystem/condition-category",
          "code": "encounter-diagnosis",
          "display": "Encounter Diagnosis"
        } ]
      } ],
      "code": {
        "coding": [ {
          "system": "http://snomed.info/sct",
          "version": "2022-09",
          "code": "10811121000119102",
          "display": "Major depressive disorder in mother complicating childbirth (disorder)",
          "userSelected": true
        } ]
      },
      "subject": {
        "reference": "Patient/9d983260-2a08-4ced-9a61-173f832e8160"
      },
      "recordedDate": "2024-04-18T08:00:00.000+00:00"
    }
  }, {
    "fullUrl": "major-depressive-disorder-active-8bb7",
    "resource": {
      "resourceType": "Condition",
      "id": "major-depressive-disorder-active-8bb7",
      "meta": {
        "profile": [ "http://hl7.org/fhir/us/qicore/StructureDefinition/qicore-condition" ]
      },
      "category": [ {
        "coding": [ {
          "system": "http://terminology.hl7.org/CodeSystem/condition-category",
          "code": "encounter-diagnosis",
          "display": "Encounter Diagnosis"
        } ]
      } ],
      "code": {
        "coding": [ {
          "system": "http://snomed.info/sct",
          "version": "2022-09",
          "code": "10811121000119102",
          "display": "Major depressive disorder in mother complicating childbirth (disorder)",
          "userSelected": true
        } ]
      },
      "subject": {
        "reference": "Patient/9d983260-2a08-4ced-9a61-173f832e8160"
      },
      "recordedDate": "2024-08-05T08:00:00.000+00:00"
    }
  }, {
    "fullUrl": "major-depressive-disorder-active-8bb8",
    "resource": {
      "resourceType": "Condition",
      "id": "major-depressive-disorder-active-8bb8",
      "meta": {
        "profile": [ "http://hl7.org/fhir/us/qicore/StructureDefinition/qicore-condition" ]
      },
      "category": [ {
        "coding": [ {
          "system": "http://terminology.hl7.org/CodeSystem/condition-category",
          "code": "encounter-diagnosis",
          "display": "Encounter Diagnosis"
        } ]
      } ],
      "code": {
        "coding": [ {
          "system": "http://snomed.info/sct",
          "version": "2022-09",
          "code": "10811121000119102",
          "display": "Major depressive disorder in mother complicating childbirth (disorder)",
          "userSelected": true
        } ]
      },
      "subject": {
        "reference": "Patient/9d983260-2a08-4ced-9a61-173f832e8160"
      },
      "recordedDate": "2024-09-01T08:00:00.000+00:00"
    }
  }, {
    "fullUrl": "http://coverage/1",
    "resource": {
      "resourceType": "Coverage",
      "id": "1",
      "meta": {
        "profile": [ "http://hl7.org/fhir/us/qicore/StructureDefinition/qicore-coverage" ]
      },
      "status": "active",
      "beneficiary": {
        "reference": "Patient/9d983260-2a08-4ced-9a61-173f832e8160"
      },
      "payor": [ {
        "reference": "Organization/123456"
      } ]
    }
  }, {
    "fullUrl": "http://Organization/123456",
    "resource": {
      "resourceType": "Organization",
      "id": "123456",
      "meta": {
        "profile": [ "http://hl7.org/fhir/us/qicore/StructureDefinition/qicore-organization" ]
      },
      "identifier": [ {
        "use": "temp",
        "system": "urn:oid:2.16.840.1.113883.4.4",
        "value": "21-3259825"
      } ],
      "active": true,
      "type": [ {
        "coding": [ {
          "system": "http://terminology.hl7.org/CodeSystem/organization-type",
          "code": "pay",
          "display": "Payer"
        } ]
      } ],
      "name": "Blue Cross Blue Shield of Texas",
      "telecom": [ {
        "system": "phone",
        "value": "(+1) 972-766-6900"
      } ],
      "address": [ {
        "use": "billing",
        "type": "postal",
        "line": [ "P.O. Box 660044" ],
        "city": "Dallas",
        "state": "TX",
        "postalCode": "75266-0044",
        "country": "USA"
      } ]
    }
  }, {
    "fullUrl": "http://Practitioner/123456",
    "resource": {
      "resourceType": "Practitioner",
      "id": "practitioner-123456",
      "meta": {
        "profile": [ "http://hl7.org/fhir/us/qicore/StructureDefinition/qicore-practitioner" ]
      },
      "identifier": [ {
        "system": "http://hl7.org/fhir/sid/us-npi",
        "value": "123456"
      } ],
      "name": [ {
        "family": "Evil",
        "prefix": [ "Dr" ]
      } ]
    }
  }, {
    "fullUrl": "https://madie.cms.gov/MeasureReport/6385047a4ba3d47c885c02c5/9d983260-2a08-4ced-9a61-173f832e8160",
    "resource": {
      "resourceType": "MeasureReport",
      "id": "a5435415-35d9-4af0-8f8f-5d4f8caf3fc6",
      "meta": {
        "profile": [ "http://hl7.org/fhir/us/cqfmeasures/StructureDefinition/test-case-cqfm" ]
      },
      "contained": [ {
        "resourceType": "Parameters",
        "id": "3Enc3RiskAssess -parameters",
        "parameter": [ {
          "name": "subject",
          "valueString": "9d983260-2a08-4ced-9a61-173f832e8160"
        } ]
      } ],
      "extension": [ {
        "url": "http://hl7.org/fhir/us/cqfmeasures/StructureDefinition/cqfm-inputParameters",
        "valueReference": {
          "reference": "#3Enc3RiskAssess -parameters"
        }
      }, {
        "url": "http://hl7.org/fhir/us/cqfmeasures/StructureDefinition/cqfm-testCaseDescription",
        "valueMarkdown": "Patient with Diagnosis: Major Depressive Disorder Active and \nIntervention Performed: Suicide Risk Assessment performed during encounter. 3 Times. 4th is not a new encounter"
      } ],
      "modifierExtension": [ {
        "url": "http://hl7.org/fhir/us/cqfmeasures/StructureDefinition/cqfm-isTestCase",
        "valueBoolean": true
      } ],
      "status": "complete",
      "type": "individual",
      "measure": "http://ecqi.healthit.gov/ecqms/Measure/AdultMajorDepressiveDisorderMDDSuicideRiskAssessmentFHIR",
      "period": {
        "start": "2024-01-01",
        "end": "2024-12-31"
      },
      "group": [ {
        "population": [ {
          "code": {
            "coding": [ {
              "system": "http://terminology.hl7.org/CodeSystem/measure-population",
              "code": "initial-population",
              "display": "Initial Population"
            } ]
          },
          "count": 3
        }, {
          "code": {
            "coding": [ {
              "system": "http://terminology.hl7.org/CodeSystem/measure-population",
              "code": "denominator",
              "display": "Denominator"
            } ]
          },
          "count": 3
        }, {
          "code": {
            "coding": [ {
              "system": "http://terminology.hl7.org/CodeSystem/measure-population",
              "code": "numerator",
              "display": "Numerator"
            } ]
          },
          "count": 3
        } ]
      } ],
      "evaluatedResource": [ {
        "reference": "https://madie.cms.gov/Patient/9d983260-2a08-4ced-9a61-173f832e8160"
      }, {
        "reference": "Encounter/5c98fd74b848464ed33ea078"
      }, {
        "reference": "Encounter/5c98fd74b848464ed33ea079"
      }, {
        "reference": "Encounter/5c98fd74b848464ed33ea07a"
      }, {
        "reference": "Encounter/5c98fd74b848464ed33ea07b"
      }, {
        "reference": "Procedure/5c98fd74b848464ed33ea07c"
      }, {
        "reference": "Procedure/5c98fd74b848464ed33ea07d"
      }, {
        "reference": "Procedure/5c98fd74b848464ed33ea07e"
      }, {
        "reference": "Procedure/5c98fd74b848464ed33ea07f"
      }, {
        "reference": "Condition/major-depressive-disorder-active-8bb5"
      }, {
        "reference": "Condition/major-depressive-disorder-active-8bb6"
      }, {
        "reference": "Condition/major-depressive-disorder-active-8bb7"
      }, {
        "reference": "Condition/major-depressive-disorder-active-8bb8"
      }, {
        "reference": "Coverage/1"
      }, {
        "reference": "Organization/123456"
      }, {
        "reference": "Practitioner/practitioner-123456"
      } ]
    }
  } ]
}