{"resourceType":"Bundle","id":"tests-642110f7-a8e5-4d1d-9db7-7cc35df21673-bundle","type":"transaction","entry":[{"resource":{"resourceType":"Bundle","id":"6109654b98086b538055ad26","type":"collection","entry":[{"fullUrl":"https://madie.cms.gov/Patient/642110f7-a8e5-4d1d-9db7-7cc35df21673","resource":{"resourceType":"Patient","id":"642110f7-a8e5-4d1d-9db7-7cc35df21673","meta":{"profile":["http://hl7.org/fhir/us/qicore/StructureDefinition/qicore-patient"]},"text":{"status":"generated","div":"<div xmlns=\"http://www.w3.org/1999/xhtml\"><div class=\"hapiHeaderText\">TwoEncOneRiskAssess <b>NUMERPASS </b></div><table class=\"hapiPropertyTable\"><tbody><tr><td>Identifier</td><td>84dd2287227ea51ec2f32d011a52a929de56da08bb5661cc5829fc9262c18f4f</td></tr><tr><td>Date of birth</td><td><span>02 January 1990</span></td></tr></tbody></table></div>"},"extension":[{"url":"http://hl7.org/fhir/us/core/StructureDefinition/us-core-race","extension":[{"url":"ombCategory","valueCoding":{"system":"urn:oid:2.16.840.1.113883.6.238","code":"2054-5","display":"Black or African American","userSelected":true}},{"url":"text","valueString":"Black or African American"}]},{"url":"http://hl7.org/fhir/us/core/StructureDefinition/us-core-ethnicity","extension":[{"url":"ombCategory","valueCoding":{"system":"urn:oid:2.16.840.1.113883.6.238","code":"2186-5","display":"Not Hispanic or Latino","userSelected":true}},{"url":"text","valueString":"Not Hispanic or Latino"}]}],"identifier":[{"type":{"coding":[{"system":"http://terminology.hl7.org/CodeSystem/v2-0203","code":"MR"}]},"system":"https://bonnie-fhir.healthit.gov/","value":"6109654b98086b538055ad26"}],"active":true,"name":[{"use":"usual","family":"NUMPass","given":["2Enc1RiskAssess"]}],"gender":"female","birthDate":"2002-01-02"}},{"fullUrl":"5c98fd74b848464ed33ea06a","resource":{"resourceType":"Encounter","id":"5c98fd74b848464ed33ea06a","meta":{"profile":["http://hl7.org/fhir/us/qicore/StructureDefinition/qicore-encounter"]},"status":"finished","class":{"system":"http://terminology.hl7.org/CodeSystem/v3-ActCode","code":"AMB","display":"ambulatory","userSelected":true},"type":[{"coding":[{"system":"http://www.ama-assn.org/go/cpt","code":"90832"}]}],"subject":{"reference":"Patient/642110f7-a8e5-4d1d-9db7-7cc35df21673"},"period":{"start":"2024-03-13T08:00:00.000+00:00","end":"2024-03-13T08:15:00.000+00:00"},"length":{"value":0.0,"unit":"days"},"reasonCode":[{"coding":[{"system":"http://snomed.info/sct","version":"2022-09","code":"10811161000119107","display":"Major depressive disorder in mother complicating pregnancy (disorder)","userSelected":true}]}],"diagnosis":[{"condition":{"reference":"Condition/major-depressive-disorder-active-8ba7"},"use":{"coding":[{"system":"http://snomed.info/sct","version":"2022-09","code":"10811161000119107","display":"Major depressive disorder in mother complicating pregnancy (disorder)","userSelected":true}]}}]}},{"fullUrl":"5c98fd74b848464ed33ea06b","resource":{"resourceType":"Encounter","id":"5c98fd74b848464ed33ea06b","meta":{"profile":["http://hl7.org/fhir/us/qicore/StructureDefinition/qicore-encounter"]},"status":"finished","class":{"system":"http://terminology.hl7.org/CodeSystem/v3-ActCode","code":"AMB","display":"ambulatory","userSelected":true},"type":[{"coding":[{"system":"http://www.ama-assn.org/go/cpt","code":"99244","userSelected":true}]}],"subject":{"reference":"Patient/642110f7-a8e5-4d1d-9db7-7cc35df21673"},"period":{"start":"2024-12-05T08:00:00.000+00:00","end":"2024-12-05T08:15:00.000+00:00"},"length":{"value":0.0,"unit":"days"},"diagnosis":[{"condition":{"reference":"Condition/major-depressive-disorder-active-53f0"},"use":{"coding":[{"system":"http://snomed.info/sct","version":"2022-09","code":"10811161000119107","display":"Major depressive disorder in mother complicating pregnancy (disorder)","userSelected":true}]}}]}},{"fullUrl":"5c98fd74b848464ed33ea06c","resource":{"resourceType":"Procedure","id":"5c98fd74b848464ed33ea06c","meta":{"profile":["http://hl7.org/fhir/us/qicore/StructureDefinition/qicore-procedure"]},"extension":[{"url":"http://hl7.org/fhir/us/qicore/StructureDefinition/qicore-recorded","valueDateTime":"2024-03-13T08:00:00.000Z"}],"status":"completed","code":{"coding":[{"system":"http://snomed.info/sct","code":"225337009","userSelected":true}]},"subject":{"reference":"Patient/642110f7-a8e5-4d1d-9db7-7cc35df21673"},"performedDateTime":"2024-03-13T08:00:00.000+00:00"}},{"fullUrl":"major-depressive-disorder-active-8ba7","resource":{"resourceType":"Condition","id":"major-depressive-disorder-active-8ba7","meta":{"profile":["http://hl7.org/fhir/us/qicore/StructureDefinition/qicore-condition"]},"category":[{"coding":[{"system":"http://terminology.hl7.org/CodeSystem/condition-category","code":"encounter-diagnosis","display":"Encounter Diagnosis"}]}],"code":{"coding":[{"system":"http://snomed.info/sct","version":"2022-09","code":"10811121000119102","display":"Major depressive disorder in mother complicating childbirth (disorder)","userSelected":true}]},"subject":{"reference":"Patient/642110f7-a8e5-4d1d-9db7-7cc35df21673"},"recordedDate":"2024-03-13T08:00:00.000+00:00"}},{"fullUrl":"major-depressive-disorder-active-53f0","resource":{"resourceType":"Condition","id":"major-depressive-disorder-active-53f0","meta":{"profile":["http://hl7.org/fhir/us/qicore/StructureDefinition/qicore-condition"]},"category":[{"coding":[{"system":"http://terminology.hl7.org/CodeSystem/condition-category","code":"encounter-diagnosis","display":"Encounter Diagnosis"}]}],"code":{"coding":[{"system":"http://snomed.info/sct","version":"2022-09","code":"10811121000119102","display":"Major depressive disorder in mother complicating childbirth (disorder)","userSelected":true}]},"subject":{"reference":"Patient/642110f7-a8e5-4d1d-9db7-7cc35df21673"},"recordedDate":"2024-12-05T08:00:00.000+00:00"}},{"fullUrl":"http://coverage/1","resource":{"resourceType":"Coverage","id":"1","meta":{"profile":["http://hl7.org/fhir/us/qicore/StructureDefinition/qicore-coverage"]},"status":"active","beneficiary":{"reference":"Patient/642110f7-a8e5-4d1d-9db7-7cc35df21673"},"payor":[{"reference":"Organization/123456"}]}},{"fullUrl":"http://Organization/123456","resource":{"resourceType":"Organization","id":"123456","meta":{"profile":["http://hl7.org/fhir/us/qicore/StructureDefinition/qicore-organization"]},"identifier":[{"use":"temp","system":"urn:oid:2.16.840.1.113883.4.4","value":"21-3259825"}],"active":true,"type":[{"coding":[{"system":"http://terminology.hl7.org/CodeSystem/organization-type","code":"pay","display":"Payer"}]}],"name":"Blue Cross Blue Shield of Texas","telecom":[{"system":"phone","value":"(+1) 972-766-6900"}],"address":[{"use":"billing","type":"postal","line":["P.O. Box 660044"],"city":"Dallas","state":"TX","postalCode":"75266-0044","country":"USA"}]}},{"fullUrl":"http://Practitioner/123456","resource":{"resourceType":"Practitioner","id":"practitioner-123456","meta":{"profile":["http://hl7.org/fhir/us/qicore/StructureDefinition/qicore-practitioner"]},"identifier":[{"system":"http://hl7.org/fhir/sid/us-npi","value":"123456"}],"name":[{"family":"Evil","prefix":["Dr"]}]}},{"fullUrl":"https://madie.cms.gov/MeasureReport/6385047a4ba3d47c885c02c5/642110f7-a8e5-4d1d-9db7-7cc35df21673","resource":{"resourceType":"MeasureReport","id":"c1047399-0128-43a5-8f5b-2db6ed704164","meta":{"profile":["http://hl7.org/fhir/us/cqfmeasures/StructureDefinition/test-case-cqfm"]},"contained":[{"resourceType":"Parameters","id":"2Enc1RiskAssess-parameters","parameter":[{"name":"subject","valueString":"642110f7-a8e5-4d1d-9db7-7cc35df21673"}]}],"extension":[{"url":"http://hl7.org/fhir/us/cqfmeasures/StructureDefinition/cqfm-inputParameters","valueReference":{"reference":"#2Enc1RiskAssess-parameters"}},{"url":"http://hl7.org/fhir/us/cqfmeasures/StructureDefinition/cqfm-testCaseDescription","valueMarkdown":"Patient with Diagnosis: Major Depressive Disorder-Active and \nIntervention Performed: Suicide Risk Assessment performed during Encounter Performed: Psych Visit Psychotherapy and Outpatient Consultation "}],"modifierExtension":[{"url":"http://hl7.org/fhir/us/cqfmeasures/StructureDefinition/cqfm-isTestCase","valueBoolean":true}],"status":"complete","type":"individual","measure":"http://ecqi.healthit.gov/ecqms/Measure/AdultMajorDepressiveDisorderMDDSuicideRiskAssessmentFHIR","period":{"start":"2024-01-01","end":"2024-12-31"},"group":[{"population":[{"code":{"coding":[{"system":"http://terminology.hl7.org/CodeSystem/measure-population","code":"initial-population","display":"Initial Population"}]},"count":2},{"code":{"coding":[{"system":"http://terminology.hl7.org/CodeSystem/measure-population","code":"denominator","display":"Denominator"}]},"count":2},{"code":{"coding":[{"system":"http://terminology.hl7.org/CodeSystem/measure-population","code":"numerator","display":"Numerator"}]},"count":1}]}],"evaluatedResource":[{"reference":"https://madie.cms.gov/Patient/642110f7-a8e5-4d1d-9db7-7cc35df21673"},{"reference":"Encounter/5c98fd74b848464ed33ea06a"},{"reference":"Encounter/5c98fd74b848464ed33ea06b"},{"reference":"Procedure/5c98fd74b848464ed33ea06c"},{"reference":"Condition/major-depressive-disorder-active-8ba7"},{"reference":"Condition/major-depressive-disorder-active-53f0"},{"reference":"Coverage/1"},{"reference":"Organization/123456"},{"reference":"Practitioner/practitioner-123456"}]}}]},"request":{"method":"PUT","url":"Bundle/6109654b98086b538055ad26"}}]}