{"resourceType":"Bundle","id":"tests-5f14d3da-735b-4ea2-994c-f26f18c081cd-bundle","type":"transaction","entry":[{"resource":{"resourceType":"Bundle","id":"6109654b98086b538055ad0d","type":"collection","entry":[{"fullUrl":"https://madie.cms.gov/Patient/5f14d3da-735b-4ea2-994c-f26f18c081cd","resource":{"resourceType":"Patient","id":"5f14d3da-735b-4ea2-994c-f26f18c081cd","meta":{"profile":["http://hl7.org/fhir/us/qicore/StructureDefinition/qicore-patient"]},"text":{"status":"generated","div":"<div xmlns=\"http://www.w3.org/1999/xhtml\"><div class=\"hapiHeaderText\">OPConsultEncB4MP <b>IPPFAIL </b></div><table class=\"hapiPropertyTable\"><tbody><tr><td>Identifier</td><td>7ce0a5f1a53ea03e242c3e8482544b43</td></tr><tr><td>Date of birth</td><td><span>01 January 1995</span></td></tr></tbody></table></div>"},"extension":[{"url":"http://hl7.org/fhir/us/core/StructureDefinition/us-core-race","extension":[{"url":"ombCategory","valueCoding":{"system":"urn:oid:2.16.840.1.113883.6.238","code":"1002-5","display":"American Indian or Alaska Native","userSelected":true}},{"url":"text","valueString":"American Indian or Alaska Native"}]},{"url":"http://hl7.org/fhir/us/core/StructureDefinition/us-core-ethnicity","extension":[{"url":"ombCategory","valueCoding":{"system":"urn:oid:2.16.840.1.113883.6.238","code":"2135-2","display":"Hispanic or Latino","userSelected":true}},{"url":"text","valueString":"Hispanic or Latino"}]}],"identifier":[{"type":{"coding":[{"system":"http://terminology.hl7.org/CodeSystem/v2-0203","code":"MR"}]},"system":"https://bonnie-fhir.healthit.gov/","value":"6109654b98086b538055ad0d"}],"active":true,"name":[{"use":"usual","family":"IPFail","given":["OPConsultEncBeforeMP"]}],"gender":"female","birthDate":"1995-01-01"}},{"fullUrl":"5c98fd74b848464ed33ea064","resource":{"resourceType":"Encounter","id":"5c98fd74b848464ed33ea064","meta":{"profile":["http://hl7.org/fhir/us/qicore/StructureDefinition/qicore-encounter"]},"status":"finished","class":{"system":"http://terminology.hl7.org/CodeSystem/v3-ActCode","code":"AMB","display":"ambulatory"},"type":[{"coding":[{"system":"http://www.ama-assn.org/go/cpt","code":"99241"}]}],"subject":{"reference":"Patient/5f14d3da-735b-4ea2-994c-f26f18c081cd"},"period":{"start":"2011-12-31T08:00:00+00:00","end":"2011-12-31T08:15:00+00:00"},"reasonCode":[{"coding":[{"system":"http://snomed.info/sct","version":"2020-09","code":"25922000","display":"Major depressive disorder, single episode with postpartum onset (disorder)","userSelected":true}]}]}},{"fullUrl":"5c98fd74b848464ed33ea065","resource":{"resourceType":"Procedure","id":"5c98fd74b848464ed33ea065","meta":{"profile":["http://hl7.org/fhir/us/qicore/StructureDefinition/qicore-procedure"]},"extension":[{"url":"http://hl7.org/fhir/us/qicore/StructureDefinition/qicore-recorded","valueDateTime":"2024-01-01T08:00:00.000Z"}],"status":"completed","code":{"coding":[{"system":"http://snomed.info/sct","code":"225337009"}]},"subject":{"reference":"Patient/5f14d3da-735b-4ea2-994c-f26f18c081cd"},"performedPeriod":{"start":"2011-12-31T08:00:00+00:00","end":"2011-12-31T08:15:00+00:00"}}},{"fullUrl":"http://coverage/1","resource":{"resourceType":"Coverage","id":"1","meta":{"profile":["http://hl7.org/fhir/us/qicore/StructureDefinition/qicore-coverage"]},"status":"active","beneficiary":{"reference":"Patient/5f14d3da-735b-4ea2-994c-f26f18c081cd"},"payor":[{"reference":"Organization/123456"}]}},{"fullUrl":"http://Organization/123456","resource":{"resourceType":"Organization","id":"123456","meta":{"profile":["http://hl7.org/fhir/us/qicore/StructureDefinition/qicore-organization"]},"identifier":[{"use":"temp","system":"urn:oid:2.16.840.1.113883.4.4","value":"21-3259825"}],"active":true,"type":[{"coding":[{"system":"http://terminology.hl7.org/CodeSystem/organization-type","code":"pay","display":"Payer"}]}],"name":"Blue Cross Blue Shield of Texas","telecom":[{"system":"phone","value":"(+1) 972-766-6900"}],"address":[{"use":"billing","type":"postal","line":["P.O. Box 660044"],"city":"Dallas","state":"TX","postalCode":"75266-0044","country":"USA"}]}},{"fullUrl":"http://Practitioner/123456","resource":{"resourceType":"Practitioner","id":"practitioner-123456","meta":{"profile":["http://hl7.org/fhir/us/qicore/StructureDefinition/qicore-practitioner"]},"identifier":[{"system":"http://hl7.org/fhir/sid/us-npi","value":"123456"}],"name":[{"family":"Evil","prefix":["Dr"]}]}},{"fullUrl":"https://madie.cms.gov/MeasureReport/6385047a4ba3d47c885c02c5/5f14d3da-735b-4ea2-994c-f26f18c081cd","resource":{"resourceType":"MeasureReport","id":"6b35394f-8532-4cd4-ba6e-5b3faee06b0b","meta":{"profile":["http://hl7.org/fhir/us/cqfmeasures/StructureDefinition/test-case-cqfm"]},"contained":[{"resourceType":"Parameters","id":"OPConsultEncBeforeMP-parameters","parameter":[{"name":"subject","valueString":"5f14d3da-735b-4ea2-994c-f26f18c081cd"}]}],"extension":[{"url":"http://hl7.org/fhir/us/cqfmeasures/StructureDefinition/cqfm-inputParameters","valueReference":{"reference":"#OPConsultEncBeforeMP-parameters"}},{"url":"http://hl7.org/fhir/us/cqfmeasures/StructureDefinition/cqfm-testCaseDescription","valueMarkdown":"Patient with depression diagnosis Encounter: Performed: Outpatient Consultation before measurement period.  Intervention Performed: Suicide Risk Assessment"}],"modifierExtension":[{"url":"http://hl7.org/fhir/us/cqfmeasures/StructureDefinition/cqfm-isTestCase","valueBoolean":true}],"status":"complete","type":"individual","measure":"http://ecqi.healthit.gov/ecqms/Measure/AdultMajorDepressiveDisorderMDDSuicideRiskAssessmentFHIR","period":{"start":"2024-01-01","end":"2024-12-31"},"group":[{"population":[{"code":{"coding":[{"system":"http://terminology.hl7.org/CodeSystem/measure-population","code":"initial-population","display":"Initial Population"}]},"count":0},{"code":{"coding":[{"system":"http://terminology.hl7.org/CodeSystem/measure-population","code":"denominator","display":"Denominator"}]},"count":0},{"code":{"coding":[{"system":"http://terminology.hl7.org/CodeSystem/measure-population","code":"numerator","display":"Numerator"}]},"count":0}]}],"evaluatedResource":[{"reference":"https://madie.cms.gov/Patient/5f14d3da-735b-4ea2-994c-f26f18c081cd"},{"reference":"Encounter/5c98fd74b848464ed33ea064"},{"reference":"Procedure/5c98fd74b848464ed33ea065"},{"reference":"Coverage/1"},{"reference":"Organization/123456"},{"reference":"Practitioner/practitioner-123456"}]}}]},"request":{"method":"PUT","url":"Bundle/6109654b98086b538055ad0d"}}]}