{"resourceType":"Bundle","id":"tests-bd1a813a-c72c-49c5-9d46-a78c0fa06667-bundle","type":"transaction","entry":[{"resource":{"resourceType":"Bundle","id":"6109654b98086b538055ad10","type":"collection","entry":[{"fullUrl":"https://madie.cms.gov/Patient/bd1a813a-c72c-49c5-9d46-a78c0fa06667","resource":{"resourceType":"Patient","id":"bd1a813a-c72c-49c5-9d46-a78c0fa06667","meta":{"profile":["http://hl7.org/fhir/us/qicore/StructureDefinition/qicore-patient"]},"text":{"status":"generated","div":"<div xmlns=\"http://www.w3.org/1999/xhtml\"><div class=\"hapiHeaderText\">EDVisitEncB4MP <b>IPPFAIL </b></div><table class=\"hapiPropertyTable\"><tbody><tr><td>Identifier</td><td>313a64d45ef67e0a6caa21bf2817771a</td></tr><tr><td>Date of birth</td><td><span>01 January 1995</span></td></tr></tbody></table></div>"},"extension":[{"url":"http://hl7.org/fhir/us/core/StructureDefinition/us-core-race","extension":[{"url":"ombCategory","valueCoding":{"system":"urn:oid:2.16.840.1.113883.6.238","code":"2106-3","display":"White","userSelected":true}},{"url":"text","valueString":"White"}]},{"url":"http://hl7.org/fhir/us/core/StructureDefinition/us-core-ethnicity","extension":[{"url":"ombCategory","valueCoding":{"system":"urn:oid:2.16.840.1.113883.6.238","code":"2186-5","display":"Not Hispanic or Latino","userSelected":true}},{"url":"text","valueString":"Not Hispanic or Latino"}]}],"identifier":[{"type":{"coding":[{"system":"http://terminology.hl7.org/CodeSystem/v2-0203","code":"MR"}]},"system":"https://bonnie-fhir.healthit.gov/","value":"6109654b98086b538055ad10"}],"active":true,"name":[{"use":"usual","family":"IPFail","given":["EDVisitEncBeforeMP"]}],"gender":"female","birthDate":"1995-01-01"}},{"fullUrl":"5c98fd73b848464ed33ea030","resource":{"resourceType":"Encounter","id":"5c98fd73b848464ed33ea030","meta":{"profile":["http://hl7.org/fhir/us/qicore/StructureDefinition/qicore-encounter"]},"status":"finished","class":{"system":"http://terminology.hl7.org/CodeSystem/v3-ActCode","code":"AMB","display":"ambulatory"},"type":[{"coding":[{"system":"http://www.ama-assn.org/go/cpt","code":"99281"}]}],"subject":{"reference":"Patient/bd1a813a-c72c-49c5-9d46-a78c0fa06667"},"period":{"start":"2023-12-31T08:00:00.000+00:00","end":"2023-12-31T08:15:00.000+00:00"},"diagnosis":[{"condition":{"reference":"Condition/major-depressive-disorder-active-2b10"}}]}},{"fullUrl":"5c98fd73b848464ed33ea031","resource":{"resourceType":"Procedure","id":"5c98fd73b848464ed33ea031","meta":{"profile":["http://hl7.org/fhir/us/qicore/StructureDefinition/qicore-procedure"]},"extension":[{"url":"http://hl7.org/fhir/us/qicore/StructureDefinition/qicore-recorded","valueDateTime":"2023-12-31T08:00:00.000Z"}],"status":"completed","code":{"coding":[{"system":"http://snomed.info/sct","code":"225337009"}]},"subject":{"reference":"Patient/bd1a813a-c72c-49c5-9d46-a78c0fa06667"},"performedPeriod":{"start":"2023-12-31T08:00:00.000+00:00","end":"2023-12-31T08:15:00.000+00:00"}}},{"fullUrl":"major-depressive-disorder-active-2b10","resource":{"resourceType":"Condition","id":"major-depressive-disorder-active-2b10","meta":{"profile":["http://hl7.org/fhir/us/qicore/StructureDefinition/qicore-condition"]},"category":[{"coding":[{"system":"http://terminology.hl7.org/CodeSystem/condition-category","code":"encounter-diagnosis","display":"Encounter Diagnosis"}]}],"code":{"coding":[{"system":"http://hl7.org/fhir/sid/icd-10-cm","code":"F32.9","userSelected":true}]},"subject":{"reference":"Patient/bd1a813a-c72c-49c5-9d46-a78c0fa06667"},"onsetDateTime":"2023-12-31T08:02:00.000+00:00"}},{"fullUrl":"http://coverage/1","resource":{"resourceType":"Coverage","id":"1","meta":{"profile":["http://hl7.org/fhir/us/qicore/StructureDefinition/qicore-coverage"]},"status":"active","beneficiary":{"reference":"Patient/bd1a813a-c72c-49c5-9d46-a78c0fa06667"},"payor":[{"reference":"Organization/123456"}]}},{"fullUrl":"http://Organization/123456","resource":{"resourceType":"Organization","id":"123456","meta":{"profile":["http://hl7.org/fhir/us/qicore/StructureDefinition/qicore-organization"]},"identifier":[{"use":"temp","system":"urn:oid:2.16.840.1.113883.4.4","value":"21-3259825"}],"active":true,"type":[{"coding":[{"system":"http://terminology.hl7.org/CodeSystem/organization-type","code":"pay","display":"Payer"}]}],"name":"Blue Cross Blue Shield of Texas","telecom":[{"system":"phone","value":"(+1) 972-766-6900"}],"address":[{"use":"billing","type":"postal","line":["P.O. Box 660044"],"city":"Dallas","state":"TX","postalCode":"75266-0044","country":"USA"}]}},{"fullUrl":"http://Practitioner/123456","resource":{"resourceType":"Practitioner","id":"practitioner-123456","meta":{"profile":["http://hl7.org/fhir/us/qicore/StructureDefinition/qicore-practitioner"]},"identifier":[{"system":"http://hl7.org/fhir/sid/us-npi","value":"123456"}],"name":[{"family":"Evil","prefix":["Dr"]}]}},{"fullUrl":"https://madie.cms.gov/MeasureReport/6385047a4ba3d47c885c02c5/bd1a813a-c72c-49c5-9d46-a78c0fa06667","resource":{"resourceType":"MeasureReport","id":"7cb59a72-dc5c-4410-ada4-8622313b9ce8","meta":{"profile":["http://hl7.org/fhir/us/cqfmeasures/StructureDefinition/test-case-cqfm"]},"contained":[{"resourceType":"Parameters","id":"EDVisitEncBeforeMP-parameters","parameter":[{"name":"subject","valueString":"bd1a813a-c72c-49c5-9d46-a78c0fa06667"}]}],"extension":[{"url":"http://hl7.org/fhir/us/cqfmeasures/StructureDefinition/cqfm-inputParameters","valueReference":{"reference":"#EDVisitEncBeforeMP-parameters"}},{"url":"http://hl7.org/fhir/us/cqfmeasures/StructureDefinition/cqfm-testCaseDescription","valueMarkdown":"Patient with Encounter Performed: Emergency Department Visit\nbefore measurement period."}],"modifierExtension":[{"url":"http://hl7.org/fhir/us/cqfmeasures/StructureDefinition/cqfm-isTestCase","valueBoolean":true}],"status":"complete","type":"individual","measure":"http://ecqi.healthit.gov/ecqms/Measure/AdultMajorDepressiveDisorderMDDSuicideRiskAssessmentFHIR","period":{"start":"2024-01-01","end":"2024-12-31"},"group":[{"population":[{"code":{"coding":[{"system":"http://terminology.hl7.org/CodeSystem/measure-population","code":"initial-population","display":"Initial Population"}]},"count":0},{"code":{"coding":[{"system":"http://terminology.hl7.org/CodeSystem/measure-population","code":"denominator","display":"Denominator"}]},"count":0},{"code":{"coding":[{"system":"http://terminology.hl7.org/CodeSystem/measure-population","code":"numerator","display":"Numerator"}]},"count":0}]}],"evaluatedResource":[{"reference":"https://madie.cms.gov/Patient/bd1a813a-c72c-49c5-9d46-a78c0fa06667"},{"reference":"Encounter/5c98fd73b848464ed33ea030"},{"reference":"Procedure/5c98fd73b848464ed33ea031"},{"reference":"Condition/major-depressive-disorder-active-2b10"},{"reference":"Coverage/1"},{"reference":"Organization/123456"},{"reference":"Practitioner/practitioner-123456"}]}}]},"request":{"method":"PUT","url":"Bundle/6109654b98086b538055ad10"}}]}