{"resourceType":"Bundle","id":"tests-abf94041-33bd-49ec-b3a7-5113a68bcdc9-bundle","type":"transaction","entry":[{"resource":{"resourceType":"Bundle","id":"6109654b98086b538055ad21","type":"collection","entry":[{"fullUrl":"https://madie.cms.gov/Patient/abf94041-33bd-49ec-b3a7-5113a68bcdc9","resource":{"resourceType":"Patient","id":"abf94041-33bd-49ec-b3a7-5113a68bcdc9","meta":{"profile":["http://hl7.org/fhir/us/qicore/StructureDefinition/qicore-patient"]},"text":{"status":"generated","div":"<div xmlns=\"http://www.w3.org/1999/xhtml\"><div class=\"hapiHeaderText\">PtCorrAgewithMDDDxInEDEnc <b>IPPPASS </b></div><table class=\"hapiPropertyTable\"><tbody><tr><td>Identifier</td><td>5587f46d2522a9d854fd05525ca544c3</td></tr><tr><td>Date of birth</td><td><span>01 January 1993</span></td></tr></tbody></table></div>"},"extension":[{"url":"http://hl7.org/fhir/us/core/StructureDefinition/us-core-race","extension":[{"url":"ombCategory","valueCoding":{"system":"urn:oid:2.16.840.1.113883.6.238","code":"2106-3","display":"White","userSelected":true}},{"url":"text","valueString":"White"}]},{"url":"http://hl7.org/fhir/us/core/StructureDefinition/us-core-ethnicity","extension":[{"url":"ombCategory","valueCoding":{"system":"urn:oid:2.16.840.1.113883.6.238","code":"2186-5","display":"Not Hispanic or Latino","userSelected":true}},{"url":"text","valueString":"Not Hispanic or Latino"}]}],"identifier":[{"type":{"coding":[{"system":"http://terminology.hl7.org/CodeSystem/v2-0203","code":"MR"}]},"system":"https://bonnie-fhir.healthit.gov/","value":"6109654b98086b538055ad21"}],"active":true,"name":[{"use":"usual","family":"IPPass","given":["AgeCorrectwithMDDInEDEnc"]}],"gender":"female","birthDate":"1993-01-01"}},{"fullUrl":"5c98fd73b848464ed33ea047","resource":{"resourceType":"Encounter","id":"5c98fd73b848464ed33ea047","meta":{"profile":["http://hl7.org/fhir/us/qicore/StructureDefinition/qicore-encounter"]},"status":"finished","class":{"system":"http://terminology.hl7.org/CodeSystem/v3-ActCode","code":"AMB","display":"ambulatory","userSelected":true},"type":[{"coding":[{"system":"http://www.ama-assn.org/go/cpt","code":"99281"}]}],"subject":{"reference":"Patient/abf94041-33bd-49ec-b3a7-5113a68bcdc9"},"period":{"start":"2024-01-02T08:00:00.000+00:00","end":"2024-01-04T08:15:00.000+00:00"},"length":{"value":2.0,"unit":"days"},"diagnosis":[{"condition":{"reference":"Condition/major-depressive-disorder-active-2b12"}}]}},{"fullUrl":"major-depressive-disorder-active-2b12","resource":{"resourceType":"Condition","id":"major-depressive-disorder-active-2b12","meta":{"profile":["http://hl7.org/fhir/us/qicore/StructureDefinition/qicore-condition"]},"category":[{"coding":[{"system":"http://terminology.hl7.org/CodeSystem/condition-category","code":"encounter-diagnosis","display":"Encounter Diagnosis"}]}],"code":{"coding":[{"system":"http://snomed.info/sct","code":"39809009","userSelected":true}]},"subject":{"reference":"Patient/abf94041-33bd-49ec-b3a7-5113a68bcdc9"},"recordedDate":"2012-08-17T08:00:00.000+00:00"}},{"fullUrl":"http://coverage/1","resource":{"resourceType":"Coverage","id":"1","meta":{"profile":["http://hl7.org/fhir/us/qicore/StructureDefinition/qicore-coverage"]},"status":"active","beneficiary":{"reference":"Patient/abf94041-33bd-49ec-b3a7-5113a68bcdc9"},"payor":[{"reference":"Organization/123456"}]}},{"fullUrl":"http://Organization/123456","resource":{"resourceType":"Organization","id":"123456","meta":{"profile":["http://hl7.org/fhir/us/qicore/StructureDefinition/qicore-organization"]},"identifier":[{"use":"temp","system":"urn:oid:2.16.840.1.113883.4.4","value":"21-3259825"}],"active":true,"type":[{"coding":[{"system":"http://terminology.hl7.org/CodeSystem/organization-type","code":"pay","display":"Payer"}]}],"name":"Blue Cross Blue Shield of Texas","telecom":[{"system":"phone","value":"(+1) 972-766-6900"}],"address":[{"use":"billing","type":"postal","line":["P.O. Box 660044"],"city":"Dallas","state":"TX","postalCode":"75266-0044","country":"USA"}]}},{"fullUrl":"http://Practitioner/123456","resource":{"resourceType":"Practitioner","id":"practitioner-123456","meta":{"profile":["http://hl7.org/fhir/us/qicore/StructureDefinition/qicore-practitioner"]},"identifier":[{"system":"http://hl7.org/fhir/sid/us-npi","value":"123456"}],"name":[{"family":"Evil","prefix":["Dr"]}]}},{"fullUrl":"https://madie.cms.gov/MeasureReport/6385047a4ba3d47c885c02c5/abf94041-33bd-49ec-b3a7-5113a68bcdc9","resource":{"resourceType":"MeasureReport","id":"298703cb-4e2a-4351-b91e-a2ed5f038f5f","meta":{"profile":["http://hl7.org/fhir/us/cqfmeasures/StructureDefinition/test-case-cqfm"]},"contained":[{"resourceType":"Parameters","id":"AgeCorrectwithMDDInEDEnc-parameters","parameter":[{"name":"subject","valueString":"abf94041-33bd-49ec-b3a7-5113a68bcdc9"}]}],"extension":[{"url":"http://hl7.org/fhir/us/cqfmeasures/StructureDefinition/cqfm-inputParameters","valueReference":{"reference":"#AgeCorrectwithMDDInEDEnc-parameters"}},{"url":"http://hl7.org/fhir/us/cqfmeasures/StructureDefinition/cqfm-testCaseDescription","valueMarkdown":"Patient correct age with Diagnosis: Major Depressive Disorder-Active  during Encounter Performed: Emergency Department Visit encounter."}],"modifierExtension":[{"url":"http://hl7.org/fhir/us/cqfmeasures/StructureDefinition/cqfm-isTestCase","valueBoolean":true}],"status":"complete","type":"individual","measure":"http://ecqi.healthit.gov/ecqms/Measure/AdultMajorDepressiveDisorderMDDSuicideRiskAssessmentFHIR","period":{"start":"2024-01-01","end":"2024-12-31"},"group":[{"population":[{"code":{"coding":[{"system":"http://terminology.hl7.org/CodeSystem/measure-population","code":"initial-population","display":"Initial Population"}]},"count":1},{"code":{"coding":[{"system":"http://terminology.hl7.org/CodeSystem/measure-population","code":"denominator","display":"Denominator"}]},"count":1},{"code":{"coding":[{"system":"http://terminology.hl7.org/CodeSystem/measure-population","code":"numerator","display":"Numerator"}]},"count":0}]}],"evaluatedResource":[{"reference":"https://madie.cms.gov/Patient/abf94041-33bd-49ec-b3a7-5113a68bcdc9"},{"reference":"Encounter/5c98fd73b848464ed33ea047"},{"reference":"Condition/major-depressive-disorder-active-2b12"},{"reference":"Coverage/1"},{"reference":"Organization/123456"},{"reference":"Practitioner/practitioner-123456"}]}}]},"request":{"method":"PUT","url":"Bundle/6109654b98086b538055ad21"}}]}