{"resourceType":"Bundle","id":"tests-87eab666-6659-425c-bc1d-a44bd4822a1a-bundle","type":"transaction","entry":[{"resource":{"resourceType":"Bundle","id":"DENEXPass-TwoOutpatientVisitsDifferentDays","type":"collection","entry":[{"fullUrl":"https://madie.cms.gov/Patient/87eab666-6659-425c-bc1d-a44bd4822a1a","resource":{"resourceType":"Patient","id":"87eab666-6659-425c-bc1d-a44bd4822a1a","meta":{"profile":["http://hl7.org/fhir/us/qicore/StructureDefinition/qicore-patient"]},"extension":[{"url":"http://hl7.org/fhir/us/core/StructureDefinition/us-core-race","extension":[{"url":"ombCategory","valueCoding":{"system":"urn:oid:2.16.840.1.113883.6.238","code":"2028-9","display":"Asian"}},{"url":"text","valueString":"Asian"}]},{"url":"http://hl7.org/fhir/us/core/StructureDefinition/us-core-ethnicity","extension":[{"url":"ombCategory","valueCoding":{"system":"urn:oid:2.16.840.1.113883.6.238","code":"2135-2","display":"Hispanic or Latino"}},{"url":"text","valueString":"Hispanic or Latino"}]}],"identifier":[{"system":"http://hospital.smarthealthit.org","value":"999999995"}],"name":[{"family":"Bertha","given":["Betty"]}],"gender":"female","birthDate":"1957-12-31"}},{"fullUrl":"https://madie.cms.gov/Encounter/Encounter-1","resource":{"resourceType":"Encounter","id":"Encounter-1","meta":{"profile":["http://hl7.org/fhir/us/qicore/StructureDefinition/qicore-encounter"]},"status":"finished","class":{"system":"http://terminology.hl7.org/CodeSystem/v3-ActCode","code":"AMB","display":"ambulatory"},"type":[{"coding":[{"system":"http://snomed.info/sct","code":"3391000175108","display":"Office visit for pediatric care and assessment (procedure)"}]}],"subject":{"reference":"Patient/87eab666-6659-425c-bc1d-a44bd4822a1a"},"period":{"start":"2024-01-01T00:00:00.000Z","end":"2024-01-01T01:00:00.000Z"}}},{"fullUrl":"https://madie.cms.gov/Condition/Condition-1","resource":{"resourceType":"Condition","id":"Condition-1","meta":{"profile":["http://hl7.org/fhir/us/qicore/StructureDefinition/qicore-condition"]},"clinicalStatus":{"coding":[{"system":"http://terminology.hl7.org/CodeSystem/condition-clinical","code":"active"}]},"category":[{"coding":[{"system":"http://terminology.hl7.org/CodeSystem/condition-category","code":"problem-list-item","display":"Problem List Item"}]}],"code":{"coding":[{"system":"http://snomed.info/sct","code":"371125006","display":"Labile essential hypertension (disorder)"}]},"subject":{"reference":"Patient/87eab666-6659-425c-bc1d-a44bd4822a1a"},"onsetDateTime":"2024-06-30T23:59:59.000Z"}},{"fullUrl":"https://madie.cms.gov/Condition/Condition-2","resource":{"resourceType":"Condition","id":"Condition-2","meta":{"profile":["http://hl7.org/fhir/us/qicore/StructureDefinition/qicore-condition"]},"clinicalStatus":{"coding":[{"system":"http://terminology.hl7.org/CodeSystem/condition-clinical","code":"active"}]},"category":[{"coding":[{"system":"http://terminology.hl7.org/CodeSystem/condition-category","code":"problem-list-item","display":"Problem List Item"}]}],"code":{"coding":[{"system":"http://snomed.info/sct","code":"101421000119107","display":"Dementia due to Parkinson's disease (disorder)"}]},"subject":{"reference":"Patient/87eab666-6659-425c-bc1d-a44bd4822a1a"},"onsetDateTime":"2023-12-31T23:59:59.000Z"}},{"fullUrl":"https://madie.cms.gov/Encounter/Encounter-2","resource":{"resourceType":"Encounter","id":"Encounter-2","meta":{"profile":["http://hl7.org/fhir/us/qicore/StructureDefinition/qicore-encounter"]},"status":"finished","class":{"system":"http://terminology.hl7.org/CodeSystem/v3-ActCode","code":"AMB","display":"ambulatory"},"type":[{"coding":[{"system":"http://snomed.info/sct","code":"4525004","display":"Emergency department patient visit (procedure)"}]}],"subject":{"reference":"Patient/87eab666-6659-425c-bc1d-a44bd4822a1a"},"period":{"start":"2023-12-31T00:00:00.000Z","end":"2024-01-01T01:00:00.000Z"},"diagnosis":[{"condition":{"reference":"Condition/Condition-2"}}]}},{"fullUrl":"https://madie.cms.gov/Encounter/Encounter-3","resource":{"resourceType":"Encounter","id":"Encounter-3","meta":{"profile":["http://hl7.org/fhir/us/qicore/StructureDefinition/qicore-encounter"]},"status":"finished","class":{"system":"http://terminology.hl7.org/CodeSystem/v3-ActCode","code":"AMB","display":"ambulatory"},"type":[{"coding":[{"system":"http://snomed.info/sct","code":"4525004","display":"Emergency department patient visit (procedure)"}]}],"subject":{"reference":"Patient/87eab666-6659-425c-bc1d-a44bd4822a1a"},"period":{"start":"2024-05-01T00:00:00.000Z","end":"2024-05-01T01:00:00.000Z"},"diagnosis":[{"condition":{"reference":"Condition/Condition-2"}}]}},{"fullUrl":"https://madie.cms.gov/DeviceRequest/DeviceRequest-1","resource":{"resourceType":"DeviceRequest","id":"DeviceRequest-1","meta":{"profile":["http://hl7.org/fhir/us/qicore/StructureDefinition/qicore-devicerequest"]},"modifierExtension":[{"url":"http://hl7.org/fhir/us/qicore/StructureDefinition/qicore-doNotPeform","valueBoolean":false}],"status":"completed","intent":"order","codeCodeableConcept":{"coding":[{"system":"http://snomed.info/sct","code":"183240000","display":"Self-propelled wheelchair (physical object)"}]},"subject":{"reference":"Patient/87eab666-6659-425c-bc1d-a44bd4822a1a"},"authoredOn":"2024-11-01T23:59:00.000Z"}},{"fullUrl":"https://madie.cms.gov/MeasureReport/643716e4d4d7050edabb045c/87eab666-6659-425c-bc1d-a44bd4822a1a","resource":{"resourceType":"MeasureReport","id":"ecf13ba9-6441-4cfb-91be-6dc4714e4175","meta":{"profile":["http://hl7.org/fhir/us/cqfmeasures/StructureDefinition/test-case-cqfm"]},"contained":[{"resourceType":"Parameters","id":"TwoOutpatientVisitsDifferentDays-parameters","parameter":[{"name":"subject","valueString":"87eab666-6659-425c-bc1d-a44bd4822a1a"}]}],"extension":[{"url":"http://hl7.org/fhir/us/cqfmeasures/StructureDefinition/cqfm-inputParameters","valueReference":{"reference":"#TwoOutpatientVisitsDifferentDays-parameters"}},{"url":"http://hl7.org/fhir/us/cqfmeasures/StructureDefinition/cqfm-testCaseDescription","valueMarkdown":"Two outpatient visits on different days both with advanced illness dx"}],"modifierExtension":[{"url":"http://hl7.org/fhir/us/cqfmeasures/StructureDefinition/cqfm-isTestCase","valueBoolean":true}],"status":"complete","type":"individual","measure":"http://ecqi.healthit.gov/ecqms/Measure/ControllingHighBloodPressureFHIR","period":{"start":"2024-01-01","end":"2024-12-31"},"group":[{"population":[{"code":{"coding":[{"system":"http://terminology.hl7.org/CodeSystem/measure-population","code":"initial-population","display":"Initial Population"}]},"count":1},{"code":{"coding":[{"system":"http://terminology.hl7.org/CodeSystem/measure-population","code":"denominator","display":"Denominator"}]},"count":1},{"code":{"coding":[{"system":"http://terminology.hl7.org/CodeSystem/measure-population","code":"denominator-exclusion","display":"Denominator Exclusion"}]},"count":1},{"code":{"coding":[{"system":"http://terminology.hl7.org/CodeSystem/measure-population","code":"numerator","display":"Numerator"}]},"count":0}]}],"evaluatedResource":[{"reference":"https://madie.cms.gov/Patient/87eab666-6659-425c-bc1d-a44bd4822a1a"},{"reference":"https://madie.cms.gov/Encounter/Encounter-1"},{"reference":"https://madie.cms.gov/Condition/Condition-1"},{"reference":"https://madie.cms.gov/Condition/Condition-2"},{"reference":"https://madie.cms.gov/Encounter/Encounter-2"},{"reference":"https://madie.cms.gov/Encounter/Encounter-3"},{"reference":"https://madie.cms.gov/DeviceRequest/DeviceRequest-1"}]}}]},"request":{"method":"PUT","url":"Bundle/DENEXPass-TwoOutpatientVisitsDifferentDays"}}]}