{"resourceType":"Bundle","id":"tests-e56c60ca-d0d0-4910-af2e-1d8a074d129a-bundle","type":"transaction","entry":[{"resource":{"resourceType":"Bundle","id":"DENEXPass-HospiceServiceRequestDuringMP","type":"collection","entry":[{"fullUrl":"https://madie.cms.gov/Patient/e56c60ca-d0d0-4910-af2e-1d8a074d129a","resource":{"resourceType":"Patient","id":"e56c60ca-d0d0-4910-af2e-1d8a074d129a","meta":{"profile":["http://hl7.org/fhir/us/qicore/StructureDefinition/qicore-patient"]},"extension":[{"url":"http://hl7.org/fhir/us/core/StructureDefinition/us-core-race","extension":[{"url":"ombCategory","valueCoding":{"system":"urn:oid:2.16.840.1.113883.6.238","code":"2028-9","display":"Asian"}},{"url":"text","valueString":"Asian"}]},{"url":"http://hl7.org/fhir/us/core/StructureDefinition/us-core-ethnicity","extension":[{"url":"ombCategory","valueCoding":{"system":"urn:oid:2.16.840.1.113883.6.238","code":"2135-2","display":"Hispanic or Latino"}},{"url":"text","valueString":"Hispanic or Latino"}]}],"identifier":[{"system":"http://hospital.smarthealthit.org","value":"999999995"}],"name":[{"family":"Bertha","given":["Betty"]}],"gender":"female","birthDate":"2005-12-31"}},{"fullUrl":"https://madie.cms.gov/Encounter/Encounter-1","resource":{"resourceType":"Encounter","id":"Encounter-1","meta":{"profile":["http://hl7.org/fhir/us/qicore/StructureDefinition/qicore-encounter"]},"status":"finished","class":{"system":"http://terminology.hl7.org/CodeSystem/v3-ActCode","code":"AMB","display":"ambulatory"},"type":[{"coding":[{"system":"http://snomed.info/sct","code":"3391000175108","display":"Office visit for pediatric care and assessment (procedure)"}]}],"subject":{"reference":"Patient/e56c60ca-d0d0-4910-af2e-1d8a074d129a"},"period":{"start":"2024-01-01T00:00:00.000Z","end":"2024-01-01T01:00:00.000Z"}}},{"fullUrl":"https://madie.cms.gov/Condition/Condition-1","resource":{"resourceType":"Condition","id":"Condition-1","meta":{"profile":["http://hl7.org/fhir/us/qicore/StructureDefinition/qicore-condition"]},"clinicalStatus":{"coding":[{"system":"http://terminology.hl7.org/CodeSystem/condition-clinical","code":"active"}]},"category":[{"coding":[{"system":"http://terminology.hl7.org/CodeSystem/condition-category","code":"problem-list-item","display":"Problem List Item"}]}],"code":{"coding":[{"system":"http://snomed.info/sct","code":"371125006","display":"Labile essential hypertension (disorder)"}]},"subject":{"reference":"Patient/e56c60ca-d0d0-4910-af2e-1d8a074d129a"},"onsetDateTime":"2024-06-30T23:59:59.000Z"}},{"fullUrl":"https://madie.cms.gov/ServiceRequest/ServiceRequest-1","resource":{"resourceType":"ServiceRequest","id":"ServiceRequest-1","meta":{"profile":["http://hl7.org/fhir/us/qicore/StructureDefinition/qicore-servicerequest"]},"status":"completed","intent":"order","category":[{"coding":[{"system":"http://snomed.info/sct","code":"387713003","display":"Surgical procedure"}]}],"priority":"routine","code":{"coding":[{"system":"http://snomed.info/sct","code":"385765002","display":"Hospice care management (procedure)"}]},"subject":{"reference":"Patient/e56c60ca-d0d0-4910-af2e-1d8a074d129a"},"authoredOn":"2024-01-02T00:00:00.000Z","performerType":{"coding":[{"system":"http://snomed.info/sct","code":"405279007","display":"Attending physician (occupation)"}]}}},{"fullUrl":"https://madie.cms.gov/MeasureReport/643716e4d4d7050edabb045c/e56c60ca-d0d0-4910-af2e-1d8a074d129a","resource":{"resourceType":"MeasureReport","id":"697c721a-dadc-468c-a43e-f0d4f86d57fe","meta":{"profile":["http://hl7.org/fhir/us/cqfmeasures/StructureDefinition/test-case-cqfm"]},"contained":[{"resourceType":"Parameters","id":"HospiceServiceRequestDuringMP-parameters","parameter":[{"name":"subject","valueString":"e56c60ca-d0d0-4910-af2e-1d8a074d129a"}]}],"extension":[{"url":"http://hl7.org/fhir/us/cqfmeasures/StructureDefinition/cqfm-inputParameters","valueReference":{"reference":"#HospiceServiceRequestDuringMP-parameters"}},{"url":"http://hl7.org/fhir/us/cqfmeasures/StructureDefinition/cqfm-testCaseDescription","valueMarkdown":"Hospice service request during MP"}],"modifierExtension":[{"url":"http://hl7.org/fhir/us/cqfmeasures/StructureDefinition/cqfm-isTestCase","valueBoolean":true}],"status":"complete","type":"individual","measure":"http://ecqi.healthit.gov/ecqms/Measure/ControllingHighBloodPressureFHIR","period":{"start":"2024-01-01","end":"2024-12-31"},"group":[{"population":[{"code":{"coding":[{"system":"http://terminology.hl7.org/CodeSystem/measure-population","code":"initial-population","display":"Initial Population"}]},"count":1},{"code":{"coding":[{"system":"http://terminology.hl7.org/CodeSystem/measure-population","code":"denominator","display":"Denominator"}]},"count":1},{"code":{"coding":[{"system":"http://terminology.hl7.org/CodeSystem/measure-population","code":"denominator-exclusion","display":"Denominator Exclusion"}]},"count":1},{"code":{"coding":[{"system":"http://terminology.hl7.org/CodeSystem/measure-population","code":"numerator","display":"Numerator"}]},"count":0}]}],"evaluatedResource":[{"reference":"https://madie.cms.gov/Patient/e56c60ca-d0d0-4910-af2e-1d8a074d129a"},{"reference":"https://madie.cms.gov/Encounter/Encounter-1"},{"reference":"https://madie.cms.gov/Condition/Condition-1"},{"reference":"https://madie.cms.gov/ServiceRequest/ServiceRequest-1"}]}}]},"request":{"method":"PUT","url":"Bundle/DENEXPass-HospiceServiceRequestDuringMP"}}]}