{"resourceType":"Bundle","id":"tests-e9c4dd8e-bb15-4da6-b748-469255031118-bundle","type":"transaction","entry":[{"resource":{"resourceType":"Bundle","id":"642711b378c9438489949adc","type":"collection","entry":[{"fullUrl":"https://madie.cms.gov/Patient/e9c4dd8e-bb15-4da6-b748-469255031118","resource":{"resourceType":"Patient","id":"e9c4dd8e-bb15-4da6-b748-469255031118","meta":{"profile":["http://hl7.org/fhir/us/qicore/StructureDefinition/qicore-patient"]},"extension":[{"url":"http://hl7.org/fhir/us/core/StructureDefinition/us-core-race","extension":[{"url":"ombCategory","valueCoding":{"system":"urn:oid:2.16.840.1.113883.6.238","code":"1002-5","display":"American Indian or Alaska Native","userSelected":true}},{"url":"text","valueString":"American Indian or Alaska Native"}]},{"url":"http://hl7.org/fhir/us/core/StructureDefinition/us-core-ethnicity","extension":[{"url":"ombCategory","valueCoding":{"system":"urn:oid:2.16.840.1.113883.6.238","code":"2135-2","display":"Hispanic or Latino","userSelected":true}},{"url":"text","valueString":"Hispanic or Latino"}]}],"identifier":[{"type":{"coding":[{"system":"http://terminology.hl7.org/CodeSystem/v2-0203","code":"MR"}]},"system":"https://smart.healthit.org/","value":"642711b378c9438489949adc"}],"name":[{"family":"NUMERPass","given":["AssessmentOneMonthBeforeEnc"]}],"gender":"male","birthDate":"1990-03-02"}},{"fullUrl":"http://GoodHealthCare.com/fhir/Condition/300230001","resource":{"resourceType":"Condition","id":"300230001","meta":{"profile":["http://hl7.org/fhir/us/qicore/StructureDefinition/qicore-condition"]},"clinicalStatus":{"coding":[{"system":"http://terminology.hl7.org/CodeSystem/condition-clinical","code":"active","display":"Active","userSelected":true}]},"verificationStatus":{"coding":[{"system":"http://terminology.hl7.org/CodeSystem/condition-ver-status","code":"confirmed","display":"Confirmed","userSelected":true}]},"category":[{"coding":[{"system":"http://terminology.hl7.org/CodeSystem/condition-category","code":"encounter-diagnosis","display":"Encounter Diagnosis","userSelected":true}]}],"code":{"coding":[{"system":"http://hl7.org/fhir/sid/icd-10-cm","version":"2023","code":"G31.83","userSelected":true}]},"subject":{"reference":"Patient/e9c4dd8e-bb15-4da6-b748-469255031118"},"onsetPeriod":{"start":"2022-05-01T08:00:00.000+00:00"}}},{"fullUrl":"http://GoodHealthCare.com/fhir/Encounter/300230002","resource":{"resourceType":"Encounter","id":"300230002","meta":{"profile":["http://hl7.org/fhir/us/qicore/StructureDefinition/qicore-encounter"]},"status":"finished","class":{"system":"http://terminology.hl7.org/CodeSystem/v3-ActCode","code":"AMB","display":"ambulatory","userSelected":true},"type":[{"coding":[{"system":"http://www.ama-assn.org/go/cpt","code":"99212","userSelected":true}]}],"subject":{"reference":"Patient/e9c4dd8e-bb15-4da6-b748-469255031118"},"period":{"start":"2024-03-31T08:00:00.000+00:00","end":"2024-03-31T08:35:00.000+00:00"}}},{"fullUrl":"http://GoodHealthCare.com/fhir/Encounter/300230003","resource":{"resourceType":"Encounter","id":"300230003","meta":{"profile":["http://hl7.org/fhir/us/qicore/StructureDefinition/qicore-encounter"]},"status":"finished","class":{"system":"http://terminology.hl7.org/CodeSystem/v3-ActCode","code":"AMB","display":"ambulatory","userSelected":true},"type":[{"coding":[{"system":"http://snomed.info/sct","version":"http://snomed.info/sct/731000124108/version/202303","code":"185463005","display":"Visit out of hours (procedure)","userSelected":true}]}],"subject":{"reference":"Patient/e9c4dd8e-bb15-4da6-b748-469255031118"},"period":{"start":"2024-08-31T08:00:00.000+00:00","end":"2024-08-31T08:35:00.000+00:00"}}},{"fullUrl":"http://GoodHealthCare.com/fhir/Observation/300230004","resource":{"resourceType":"Observation","id":"300230004","meta":{"profile":["http://hl7.org/fhir/us/qicore/StructureDefinition/qicore-observation"]},"status":"final","category":[{"coding":[{"system":"http://terminology.hl7.org/CodeSystem/observation-category","code":"survey","display":"Survey","userSelected":true}]}],"code":{"coding":[{"system":"http://loinc.org","version":"2.73","code":"58151-2","display":"Prior assessment Brief Interview for Mental Status (BIMS) summary score [MDSv3]","userSelected":true}]},"subject":{"reference":"Patient/e9c4dd8e-bb15-4da6-b748-469255031118"},"issued":"2024-03-31T08:03:00.000+00:00","valueInteger":26}},{"fullUrl":"http://GoodHealthcare.com/fhir/Coverage/6846813516441","resource":{"resourceType":"Coverage","id":"6846813516441","meta":{"profile":["http://hl7.org/fhir/us/qicore/StructureDefinition/qicore-coverage"]},"identifier":[{"system":"http://benefitsinc.com/certificate","value":"12345"}],"status":"active","type":{"coding":[{"system":"https://nahdo.org/sopt","version":"9.2","code":"59","display":"Other Private Insurance"}]},"beneficiary":{"reference":"Patient/e9c4dd8e-bb15-4da6-b748-469255031118"},"dependent":"0","relationship":{"coding":[{"system":"http://terminology.hl7.org/CodeSystem/subscriber-relationship","code":"self"}]},"period":{"start":"2015-05-23","end":"2025-05-23"},"payor":[{"reference":"Organization/4654531645616"}],"order":9}},{"fullUrl":"http://GoodHealthcare.com/fhir/Organization/4654531645616","resource":{"resourceType":"Organization","id":"4654531645616","meta":{"profile":["http://hl7.org/fhir/us/qicore/StructureDefinition/qicore-organization"]},"identifier":[{"use":"temp","system":"http://terminology.hl7.org/NamingSystem/USEIN","value":"48915164351354"}],"active":true,"type":[{"coding":[{"system":"http://terminology.hl7.org/CodeSystem/organization-type","code":"team","display":"Organizational team"}]}],"name":"Good Healthcare, LLC","telecom":[{"system":"phone","value":"(+1) 901-683-7777"},{"system":"fax","value":"(+1) 901-683-6622"},{"system":"email","value":"BetterYourHealth@GoodHealthcare.com"}],"address":[{"line":["3651 Wentrow Blvd, Suite 227"],"city":"Germantown","state":"TN","postalCode":"38138","country":"USA"}]}},{"fullUrl":"https://madie.cms.gov/MeasureReport/64758fe7be9def4e0b01b192/e9c4dd8e-bb15-4da6-b748-469255031118","resource":{"resourceType":"MeasureReport","id":"49799218-65d0-4d27-8828-1f9aff8ead1f","meta":{"profile":["http://hl7.org/fhir/us/cqfmeasures/StructureDefinition/test-case-cqfm"]},"contained":[{"resourceType":"Parameters","id":"AssessmentOneMonthBeforeEnc-parameters","parameter":[{"name":"subject","valueString":"e9c4dd8e-bb15-4da6-b748-469255031118"}]}],"extension":[{"url":"http://hl7.org/fhir/us/cqfmeasures/StructureDefinition/cqfm-inputParameters","valueReference":{"reference":"#AssessmentOneMonthBeforeEnc-parameters"}},{"url":"http://hl7.org/fhir/us/cqfmeasures/StructureDefinition/cqfm-testCaseDescription","valueMarkdown":"Patient has two qualifying visits, dementia diagnosis and Cognition Assesment  performed one month before Qualifying Encounter period."}],"modifierExtension":[{"url":"http://hl7.org/fhir/us/cqfmeasures/StructureDefinition/cqfm-isTestCase","valueBoolean":true}],"status":"complete","type":"individual","measure":"http://ecqi.healthit.gov/ecqms/Measure/DementiaCognitiveAssessmentFHIR","period":{"start":"2024-01-01","end":"2024-12-31"},"group":[{"population":[{"code":{"coding":[{"system":"http://terminology.hl7.org/CodeSystem/measure-population","code":"initial-population","display":"Initial Population"}]},"count":1},{"code":{"coding":[{"system":"http://terminology.hl7.org/CodeSystem/measure-population","code":"denominator","display":"Denominator"}]},"count":1},{"code":{"coding":[{"system":"http://terminology.hl7.org/CodeSystem/measure-population","code":"numerator","display":"Numerator"}]},"count":1},{"code":{"coding":[{"system":"http://terminology.hl7.org/CodeSystem/measure-population","code":"denominator-exception","display":"Denominator Exception"}]},"count":0}]}],"evaluatedResource":[{"reference":"https://madie.cms.gov/Patient/e9c4dd8e-bb15-4da6-b748-469255031118"},{"reference":"http://GoodHealthCare.com/fhir/Condition/300230001"},{"reference":"http://GoodHealthCare.com/fhir/Encounter/300230002"},{"reference":"http://GoodHealthCare.com/fhir/Encounter/300230003"},{"reference":"http://GoodHealthCare.com/fhir/Observation/300230004"},{"reference":"http://GoodHealthcare.com/fhir/Coverage/6846813516441"},{"reference":"http://GoodHealthcare.com/fhir/Organization/4654531645616"}]}}]},"request":{"method":"PUT","url":"Bundle/642711b378c9438489949adc"}}]}