{"resourceType":"Bundle","id":"tests-1f660222-9c8d-4b99-a6da-94fcb63ba261-bundle","type":"transaction","entry":[{"resource":{"resourceType":"Bundle","id":"6109654b98086b538055ad25","type":"collection","entry":[{"fullUrl":"https://madie.cms.gov/Patient/1f660222-9c8d-4b99-a6da-94fcb63ba261","resource":{"resourceType":"Patient","id":"1f660222-9c8d-4b99-a6da-94fcb63ba261","meta":{"profile":["http://hl7.org/fhir/us/qicore/StructureDefinition/qicore-patient"]},"text":{"status":"generated","div":"<div xmlns=\"http://www.w3.org/1999/xhtml\"><div class=\"hapiHeaderText\">MDDDxandRiskInTwoEnc <b>NUMERPASS </b></div><table class=\"hapiPropertyTable\"><tbody><tr><td>Identifier</td><td>34cc9011c07d35d8e61cf2e1945a46663abcac74e72aebe9aad018c22057fdd5</td></tr><tr><td>Date of birth</td><td><span>02 January 1990</span></td></tr></tbody></table></div>"},"extension":[{"url":"http://hl7.org/fhir/us/core/StructureDefinition/us-core-race","extension":[{"url":"ombCategory","valueCoding":{"system":"urn:oid:2.16.840.1.113883.6.238","code":"1002-5","display":"American Indian or Alaska Native","userSelected":true}},{"url":"text","valueString":"American Indian or Alaska Native"}]},{"url":"http://hl7.org/fhir/us/core/StructureDefinition/us-core-ethnicity","extension":[{"url":"ombCategory","valueCoding":{"system":"urn:oid:2.16.840.1.113883.6.238","code":"2135-2","display":"Hispanic or Latino","userSelected":true}},{"url":"text","valueString":"Hispanic or Latino"}]}],"identifier":[{"type":{"coding":[{"system":"http://terminology.hl7.org/CodeSystem/v2-0203","code":"MR"}]},"system":"https://bonnie-fhir.healthit.gov/","value":"6109654b98086b538055ad25"}],"active":true,"name":[{"use":"usual","family":"NUMPass","given":["RiskAssmtIn2ndEnc"]}],"gender":"female","birthDate":"1990-01-02"}},{"fullUrl":"5c98fd74b848464ed33ea067","resource":{"resourceType":"Encounter","id":"5c98fd74b848464ed33ea067","meta":{"profile":["http://hl7.org/fhir/us/qicore/StructureDefinition/qicore-encounter"]},"status":"finished","class":{"system":"http://terminology.hl7.org/CodeSystem/v3-ActCode","code":"AMB","display":"ambulatory","userSelected":true},"type":[{"coding":[{"system":"http://snomed.info/sct","code":"17436001"},{"system":"http://www.ama-assn.org/go/cpt","code":"99241"},{"system":"http://www.ama-assn.org/go/cpt","code":"99245","userSelected":true}]}],"subject":{"reference":"Patient/1f660222-9c8d-4b99-a6da-94fcb63ba261"},"period":{"start":"2024-08-20T13:00:00.000+00:00","end":"2024-08-20T13:30:00.000+00:00"},"length":{"value":0.0,"unit":"days"},"reasonCode":[{"coding":[{"system":"http://snomed.info/sct","version":"2022-09","code":"10811161000119107","display":"Major depressive disorder in mother complicating pregnancy (disorder)","userSelected":true}]}],"diagnosis":[{"condition":{"reference":"Condition/major-depressive-disorder-active-6570"},"use":{"coding":[{"system":"http://snomed.info/sct","version":"2022-09","code":"10811161000119107","display":"Major depressive disorder in mother complicating pregnancy (disorder)","userSelected":true}]}}]}},{"fullUrl":"5c98fd74b848464ed33ea068","resource":{"resourceType":"Procedure","id":"5c98fd74b848464ed33ea068","meta":{"profile":["http://hl7.org/fhir/us/qicore/StructureDefinition/qicore-procedure"]},"extension":[{"url":"http://hl7.org/fhir/us/qicore/StructureDefinition/qicore-recorded","valueDateTime":"2024-02-02T15:15:00.000Z"}],"status":"completed","code":{"coding":[{"system":"http://snomed.info/sct","code":"225337009"}]},"subject":{"reference":"Patient/1f660222-9c8d-4b99-a6da-94fcb63ba261"},"performedDateTime":"2024-02-02T15:15:00.000+00:00"}},{"fullUrl":"5c98fd74b848464ed33ea069","resource":{"resourceType":"Procedure","id":"5c98fd74b848464ed33ea069","meta":{"profile":["http://hl7.org/fhir/us/qicore/StructureDefinition/qicore-procedure"]},"extension":[{"url":"http://hl7.org/fhir/us/qicore/StructureDefinition/qicore-recorded","valueDateTime":"2024-08-20T13:15:00.000Z"}],"status":"completed","code":{"coding":[{"system":"http://snomed.info/sct","code":"225337009"}]},"subject":{"reference":"Patient/1f660222-9c8d-4b99-a6da-94fcb63ba261"},"performedDateTime":"2024-08-20T13:15:00.000+00:00"}},{"fullUrl":"emergency-department-visit-656f","resource":{"resourceType":"Encounter","id":"emergency-department-visit-656f","meta":{"profile":["http://hl7.org/fhir/us/qicore/StructureDefinition/qicore-encounter"]},"status":"finished","class":{"system":"http://terminology.hl7.org/CodeSystem/v3-ActCode","code":"AMB","display":"ambulatory","userSelected":true},"type":[{"coding":[{"system":"http://snomed.info/sct","version":"2022-09","code":"4525004","display":"Emergency department patient visit (procedure)","userSelected":true},{"system":"http://www.ama-assn.org/go/cpt","code":"99285","userSelected":true}]}],"subject":{"reference":"Patient/1f660222-9c8d-4b99-a6da-94fcb63ba261"},"period":{"start":"2024-02-02T15:00:00.000+00:00","end":"2024-02-02T15:30:00.000+00:00"},"length":{"value":0.0,"unit":"days"}}},{"fullUrl":"major-depressive-disorder-active-6570","resource":{"resourceType":"Condition","id":"major-depressive-disorder-active-6570","meta":{"profile":["http://hl7.org/fhir/us/qicore/StructureDefinition/qicore-condition"]},"category":[{"coding":[{"system":"http://terminology.hl7.org/CodeSystem/condition-category","code":"encounter-diagnosis","display":"Encounter Diagnosis"}]}],"code":{"coding":[{"system":"http://snomed.info/sct","version":"2022-09","code":"10811121000119102","display":"Major depressive disorder in mother complicating childbirth (disorder)","userSelected":true}]},"subject":{"reference":"Patient/1f660222-9c8d-4b99-a6da-94fcb63ba261"},"recordedDate":"2024-08-20T13:00:00.000+00:00"}},{"fullUrl":"http://coverage/1","resource":{"resourceType":"Coverage","id":"1","meta":{"profile":["http://hl7.org/fhir/us/qicore/StructureDefinition/qicore-coverage"]},"status":"active","beneficiary":{"reference":"Patient/1f660222-9c8d-4b99-a6da-94fcb63ba261"},"payor":[{"reference":"Organization/123456"}]}},{"fullUrl":"http://Organization/123456","resource":{"resourceType":"Organization","id":"123456","meta":{"profile":["http://hl7.org/fhir/us/qicore/StructureDefinition/qicore-organization"]},"identifier":[{"use":"temp","system":"urn:oid:2.16.840.1.113883.4.4","value":"21-3259825"}],"active":true,"type":[{"coding":[{"system":"http://terminology.hl7.org/CodeSystem/organization-type","code":"pay","display":"Payer"}]}],"name":"Blue Cross Blue Shield of Texas","telecom":[{"system":"phone","value":"(+1) 972-766-6900"}],"address":[{"use":"billing","type":"postal","line":["P.O. Box 660044"],"city":"Dallas","state":"TX","postalCode":"75266-0044","country":"USA"}]}},{"fullUrl":"http://Practitioner/123456","resource":{"resourceType":"Practitioner","id":"practitioner-123456","meta":{"profile":["http://hl7.org/fhir/us/qicore/StructureDefinition/qicore-practitioner"]},"identifier":[{"system":"http://hl7.org/fhir/sid/us-npi","value":"123456"}],"name":[{"family":"Evil","prefix":["Dr"]}]}},{"fullUrl":"https://madie.cms.gov/MeasureReport/6385047a4ba3d47c885c02c5/1f660222-9c8d-4b99-a6da-94fcb63ba261","resource":{"resourceType":"MeasureReport","id":"7991e74e-7e8f-4bce-85b5-c49cfc04c602","meta":{"profile":["http://hl7.org/fhir/us/cqfmeasures/StructureDefinition/test-case-cqfm"]},"contained":[{"resourceType":"Parameters","id":"RiskAssmtIn2ndEnc-parameters","parameter":[{"name":"subject","valueString":"1f660222-9c8d-4b99-a6da-94fcb63ba261"}]}],"extension":[{"url":"http://hl7.org/fhir/us/cqfmeasures/StructureDefinition/cqfm-inputParameters","valueReference":{"reference":"#RiskAssmtIn2ndEnc-parameters"}},{"url":"http://hl7.org/fhir/us/cqfmeasures/StructureDefinition/cqfm-testCaseDescription","valueMarkdown":"Patient with initial Encounter Performed: Emergency Department Visit without depression diagnosis.  Subsequent Encounter Performed: Outpatient Consultation with Diagnosis: Major Depressive Disorder & Intervention Performed: Suicide Risk Assessment"}],"modifierExtension":[{"url":"http://hl7.org/fhir/us/cqfmeasures/StructureDefinition/cqfm-isTestCase","valueBoolean":true}],"status":"complete","type":"individual","measure":"http://ecqi.healthit.gov/ecqms/Measure/AdultMajorDepressiveDisorderMDDSuicideRiskAssessmentFHIR","period":{"start":"2024-01-01","end":"2024-12-31"},"group":[{"population":[{"code":{"coding":[{"system":"http://terminology.hl7.org/CodeSystem/measure-population","code":"initial-population","display":"Initial Population"}]},"count":1},{"code":{"coding":[{"system":"http://terminology.hl7.org/CodeSystem/measure-population","code":"denominator","display":"Denominator"}]},"count":1},{"code":{"coding":[{"system":"http://terminology.hl7.org/CodeSystem/measure-population","code":"numerator","display":"Numerator"}]},"count":1}]}],"evaluatedResource":[{"reference":"https://madie.cms.gov/Patient/1f660222-9c8d-4b99-a6da-94fcb63ba261"},{"reference":"Encounter/5c98fd74b848464ed33ea067"},{"reference":"Procedure/5c98fd74b848464ed33ea068"},{"reference":"Procedure/5c98fd74b848464ed33ea069"},{"reference":"Encounter/emergency-department-visit-656f"},{"reference":"Condition/major-depressive-disorder-active-6570"},{"reference":"Coverage/1"},{"reference":"Organization/123456"},{"reference":"Practitioner/practitioner-123456"}]}}]},"request":{"method":"PUT","url":"Bundle/6109654b98086b538055ad25"}}]}