{"resourceType":"Bundle","id":"tests-b484b485-168a-41a9-91ef-5f33d9a2d3f4-bundle","type":"transaction","entry":[{"resource":{"resourceType":"Bundle","id":"6109654b98086b538055ad14","type":"collection","entry":[{"fullUrl":"https://madie.cms.gov/Patient/b484b485-168a-41a9-91ef-5f33d9a2d3f4","resource":{"resourceType":"Patient","id":"b484b485-168a-41a9-91ef-5f33d9a2d3f4","meta":{"profile":["http://hl7.org/fhir/us/qicore/StructureDefinition/qicore-patient"]},"text":{"status":"generated","div":"<div xmlns=\"http://www.w3.org/1999/xhtml\"><div class=\"hapiHeaderText\">RiskAssessInOV&amp;OpCons <b>NUMERPASS </b></div><table class=\"hapiPropertyTable\"><tbody><tr><td>Identifier</td><td>701be9a96f0bb46e4667ebcacb8ae362</td></tr><tr><td>Date of birth</td><td><span>01 January 1980</span></td></tr></tbody></table></div>"},"extension":[{"url":"http://hl7.org/fhir/us/core/StructureDefinition/us-core-race","extension":[{"url":"ombCategory","valueCoding":{"system":"urn:oid:2.16.840.1.113883.6.238","code":"1002-5","display":"American Indian or Alaska Native","userSelected":true}},{"url":"text","valueString":"American Indian or Alaska Native"}]},{"url":"http://hl7.org/fhir/us/core/StructureDefinition/us-core-ethnicity","extension":[{"url":"ombCategory","valueCoding":{"system":"urn:oid:2.16.840.1.113883.6.238","code":"2135-2","display":"Hispanic or Latino","userSelected":true}},{"url":"text","valueString":"Hispanic or Latino"}]}],"identifier":[{"type":{"coding":[{"system":"http://terminology.hl7.org/CodeSystem/v2-0203","code":"MR"}]},"system":"https://bonnie-fhir.healthit.gov/","value":"6109654b98086b538055ad14"}],"active":true,"name":[{"use":"usual","family":"NUMPass","given":["RiskAssessInOVandOpCons"]}],"gender":"female","birthDate":"1980-01-01"}},{"fullUrl":"5c98fd74b848464ed33ea074","resource":{"resourceType":"Encounter","id":"5c98fd74b848464ed33ea074","meta":{"profile":["http://hl7.org/fhir/us/qicore/StructureDefinition/qicore-encounter"]},"status":"finished","class":{"system":"http://terminology.hl7.org/CodeSystem/v3-ActCode","code":"AMB","display":"ambulatory","userSelected":true},"type":[{"coding":[{"system":"http://snomed.info/sct","code":"185463005"},{"system":"http://www.ama-assn.org/go/cpt","code":"99201"}]}],"subject":{"reference":"Patient/b484b485-168a-41a9-91ef-5f33d9a2d3f4"},"period":{"start":"2024-01-02T08:00:00.000+00:00","end":"2024-01-02T08:15:00.000+00:00"},"reasonCode":[{"coding":[{"system":"http://snomed.info/sct","version":"2020-09","code":"16265951000119109","display":"Mild major depressive disorder co-occurrent with anxiety single episode (disorder)","userSelected":true}]}]}},{"fullUrl":"5c98fd74b848464ed33ea075","resource":{"resourceType":"Encounter","id":"5c98fd74b848464ed33ea075","meta":{"profile":["http://hl7.org/fhir/us/qicore/StructureDefinition/qicore-encounter"]},"status":"finished","class":{"system":"http://terminology.hl7.org/CodeSystem/v3-ActCode","code":"AMB","display":"ambulatory","userSelected":true},"type":[{"coding":[{"system":"http://www.ama-assn.org/go/cpt","code":"99241"}]}],"subject":{"reference":"Patient/b484b485-168a-41a9-91ef-5f33d9a2d3f4"},"period":{"start":"2024-08-10T08:00:00.000+00:00","end":"2024-08-10T08:15:00.000+00:00"}}},{"fullUrl":"5c98fd74b848464ed33ea076","resource":{"resourceType":"Procedure","id":"5c98fd74b848464ed33ea076","meta":{"profile":["http://hl7.org/fhir/us/qicore/StructureDefinition/qicore-procedure"]},"extension":[{"url":"http://hl7.org/fhir/us/qicore/StructureDefinition/qicore-recorded","valueDateTime":"2024-01-02T08:00:00.000Z"}],"status":"completed","code":{"coding":[{"system":"http://snomed.info/sct","code":"225337009"}]},"subject":{"reference":"Patient/b484b485-168a-41a9-91ef-5f33d9a2d3f4"},"performedDateTime":"2024-01-02T08:00:00.000+00:00"}},{"fullUrl":"5c98fd74b848464ed33ea077","resource":{"resourceType":"Procedure","id":"5c98fd74b848464ed33ea077","meta":{"profile":["http://hl7.org/fhir/us/qicore/StructureDefinition/qicore-procedure"]},"extension":[{"url":"http://hl7.org/fhir/us/qicore/StructureDefinition/qicore-recorded","valueDateTime":"2024-08-10T08:00:00.000Z"}],"status":"completed","code":{"coding":[{"system":"http://snomed.info/sct","code":"225337009"}]},"subject":{"reference":"Patient/b484b485-168a-41a9-91ef-5f33d9a2d3f4"},"performedDateTime":"2024-08-10T08:00:00.000+00:00"}},{"fullUrl":"http://coverage/1","resource":{"resourceType":"Coverage","id":"1","meta":{"profile":["http://hl7.org/fhir/us/qicore/StructureDefinition/qicore-coverage"]},"status":"active","beneficiary":{"reference":"Patient/b484b485-168a-41a9-91ef-5f33d9a2d3f4"},"payor":[{"reference":"Organization/123456"}]}},{"fullUrl":"http://Organization/123456","resource":{"resourceType":"Organization","id":"123456","meta":{"profile":["http://hl7.org/fhir/us/qicore/StructureDefinition/qicore-organization"]},"identifier":[{"use":"temp","system":"urn:oid:2.16.840.1.113883.4.4","value":"21-3259825"}],"active":true,"type":[{"coding":[{"system":"http://terminology.hl7.org/CodeSystem/organization-type","code":"pay","display":"Payer"}]}],"name":"Blue Cross Blue Shield of Texas","telecom":[{"system":"phone","value":"(+1) 972-766-6900"}],"address":[{"use":"billing","type":"postal","line":["P.O. Box 660044"],"city":"Dallas","state":"TX","postalCode":"75266-0044","country":"USA"}]}},{"fullUrl":"http://Practitioner/123456","resource":{"resourceType":"Practitioner","id":"practitioner-123456","meta":{"profile":["http://hl7.org/fhir/us/qicore/StructureDefinition/qicore-practitioner"]},"identifier":[{"system":"http://hl7.org/fhir/sid/us-npi","value":"123456"}],"name":[{"family":"Evil","prefix":["Dr"]}]}},{"fullUrl":"https://madie.cms.gov/MeasureReport/6385047a4ba3d47c885c02c5/b484b485-168a-41a9-91ef-5f33d9a2d3f4","resource":{"resourceType":"MeasureReport","id":"6435ea5a-a4ee-436b-8857-e4daa0a446aa","meta":{"profile":["http://hl7.org/fhir/us/cqfmeasures/StructureDefinition/test-case-cqfm"]},"contained":[{"resourceType":"Parameters","id":"RiskAssessDuringEnc-parameters","parameter":[{"name":"subject","valueString":"b484b485-168a-41a9-91ef-5f33d9a2d3f4"}]}],"extension":[{"url":"http://hl7.org/fhir/us/cqfmeasures/StructureDefinition/cqfm-inputParameters","valueReference":{"reference":"#RiskAssessDuringEnc-parameters"}},{"url":"http://hl7.org/fhir/us/cqfmeasures/StructureDefinition/cqfm-testCaseDescription","valueMarkdown":"Patient with Diagnosis: Major Depressive Disorder Active  and Intervention Performed: Suicide Risk Assessment during Encounter Performed: Outpatient Consultation and Encounter Performed: Office Visit"}],"modifierExtension":[{"url":"http://hl7.org/fhir/us/cqfmeasures/StructureDefinition/cqfm-isTestCase","valueBoolean":true}],"status":"complete","type":"individual","measure":"http://ecqi.healthit.gov/ecqms/Measure/AdultMajorDepressiveDisorderMDDSuicideRiskAssessmentFHIR","period":{"start":"2024-01-01","end":"2024-12-31"},"group":[{"population":[{"code":{"coding":[{"system":"http://terminology.hl7.org/CodeSystem/measure-population","code":"initial-population","display":"Initial Population"}]},"count":1},{"code":{"coding":[{"system":"http://terminology.hl7.org/CodeSystem/measure-population","code":"denominator","display":"Denominator"}]},"count":1},{"code":{"coding":[{"system":"http://terminology.hl7.org/CodeSystem/measure-population","code":"numerator","display":"Numerator"}]},"count":1}]}],"evaluatedResource":[{"reference":"https://madie.cms.gov/Patient/b484b485-168a-41a9-91ef-5f33d9a2d3f4"},{"reference":"Encounter/5c98fd74b848464ed33ea074"},{"reference":"Encounter/5c98fd74b848464ed33ea075"},{"reference":"Procedure/5c98fd74b848464ed33ea076"},{"reference":"Procedure/5c98fd74b848464ed33ea077"},{"reference":"Coverage/1"},{"reference":"Organization/123456"},{"reference":"Practitioner/practitioner-123456"}]}}]},"request":{"method":"PUT","url":"Bundle/6109654b98086b538055ad14"}}]}