{
  "resourceType": "Bundle",
  "id": "6109654b98086b538055ad24",
  "type": "collection",
  "entry": [ {
    "fullUrl": "https://madie.cms.gov/Patient/42386969-27af-4f2a-803c-139d480d69bc",
    "resource": {
      "resourceType": "Patient",
      "id": "42386969-27af-4f2a-803c-139d480d69bc",
      "meta": {
        "profile": [ "http://hl7.org/fhir/us/qicore/StructureDefinition/qicore-patient" ]
      },
      "text": {
        "status": "generated",
        "div": "<div xmlns=\"http://www.w3.org/1999/xhtml\"><div class=\"hapiHeaderText\">Assess2ndEnc&lt;104 <b>NUMERFAIL </b></div><table class=\"hapiPropertyTable\"><tbody><tr><td>Identifier</td><td>e69686cf81f1a08bca71e855aa64f351187f9fa356be28745ee912522a670e3d</td></tr><tr><td>Date of birth</td><td><span>01 January 1990</span></td></tr></tbody></table></div>"
      },
      "extension": [ {
        "url": "http://hl7.org/fhir/us/core/StructureDefinition/us-core-race",
        "extension": [ {
          "url": "ombCategory",
          "valueCoding": {
            "system": "urn:oid:2.16.840.1.113883.6.238",
            "code": "2076-8",
            "display": "Native Hawaiian or Other Pacific Islander",
            "userSelected": true
          }
        }, {
          "url": "text",
          "valueString": "Native Hawaiian or Other Pacific Islander"
        } ]
      }, {
        "url": "http://hl7.org/fhir/us/core/StructureDefinition/us-core-ethnicity",
        "extension": [ {
          "url": "ombCategory",
          "valueCoding": {
            "system": "urn:oid:2.16.840.1.113883.6.238",
            "code": "2186-5",
            "display": "Not Hispanic or Latino",
            "userSelected": true
          }
        }, {
          "url": "text",
          "valueString": "Not Hispanic or Latino"
        } ]
      } ],
      "identifier": [ {
        "type": {
          "coding": [ {
            "system": "http://terminology.hl7.org/CodeSystem/v2-0203",
            "code": "MR"
          } ]
        },
        "system": "https://bonnie-fhir.healthit.gov/",
        "value": "6109654b98086b538055ad24"
      } ],
      "active": true,
      "name": [ {
        "use": "usual",
        "family": "NUMFail",
        "given": [ "Assmt2ndEncLt104Days" ]
      } ],
      "gender": "male",
      "birthDate": "1990-01-01"
    }
  }, {
    "fullUrl": "5c98fd74b848464ed33ea060",
    "resource": {
      "resourceType": "Encounter",
      "id": "5c98fd74b848464ed33ea060",
      "meta": {
        "profile": [ "http://hl7.org/fhir/us/qicore/StructureDefinition/qicore-encounter" ]
      },
      "status": "finished",
      "class": {
        "system": "http://terminology.hl7.org/CodeSystem/v3-ActCode",
        "code": "AMB",
        "display": "ambulatory",
        "userSelected": true
      },
      "type": [ {
        "coding": [ {
          "system": "http://www.ama-assn.org/go/cpt",
          "code": "99281"
        } ]
      } ],
      "subject": {
        "reference": "Patient/42386969-27af-4f2a-803c-139d480d69bc"
      },
      "period": {
        "start": "2024-01-10T08:00:00.000+00:00",
        "end": "2024-01-10T08:15:00.000+00:00"
      },
      "length": {
        "value": 0.0,
        "unit": "days"
      },
      "reasonCode": [ {
        "coding": [ {
          "system": "http://hl7.org/fhir/sid/icd-10-cm",
          "version": "2021",
          "code": "F32.2",
          "display": "Major depressive disorder, single episode, severe without psychotic features",
          "userSelected": true
        } ]
      } ],
      "diagnosis": [ {
        "condition": {
          "reference": "Condition/major-depressive-disorder-active-a39b"
        },
        "use": {
          "coding": [ {
            "system": "http://snomed.info/sct",
            "version": "2022-09",
            "code": "10811161000119107",
            "display": "Major depressive disorder in mother complicating pregnancy (disorder)",
            "userSelected": true
          } ]
        }
      } ]
    }
  }, {
    "fullUrl": "5c98fd74b848464ed33ea061",
    "resource": {
      "resourceType": "Encounter",
      "id": "5c98fd74b848464ed33ea061",
      "meta": {
        "profile": [ "http://hl7.org/fhir/us/qicore/StructureDefinition/qicore-encounter" ]
      },
      "status": "finished",
      "class": {
        "system": "http://terminology.hl7.org/CodeSystem/v3-ActCode",
        "code": "AMB",
        "display": "ambulatory",
        "userSelected": true
      },
      "type": [ {
        "coding": [ {
          "system": "http://snomed.info/sct",
          "code": "4525004"
        } ]
      } ],
      "subject": {
        "reference": "Patient/42386969-27af-4f2a-803c-139d480d69bc"
      },
      "period": {
        "start": "2024-02-16T08:00:00.000+00:00",
        "end": "2024-02-16T08:15:00.000+00:00"
      },
      "length": {
        "value": 0.0,
        "unit": "days"
      },
      "reasonCode": [ {
        "coding": [ {
          "system": "http://snomed.info/sct",
          "version": "2020-09",
          "code": "251000119105",
          "display": "Severe major depression, single episode (disorder)",
          "userSelected": true
        } ]
      } ],
      "diagnosis": [ {
        "condition": {
          "reference": "Condition/major-depressive-disorder-active-a39c"
        },
        "use": {
          "coding": [ {
            "system": "http://snomed.info/sct",
            "version": "2022-09",
            "code": "10811161000119107",
            "display": "Major depressive disorder in mother complicating pregnancy (disorder)",
            "userSelected": true
          } ]
        }
      } ]
    }
  }, {
    "fullUrl": "5c98fd74b848464ed33ea062",
    "resource": {
      "resourceType": "Encounter",
      "id": "5c98fd74b848464ed33ea062",
      "meta": {
        "profile": [ "http://hl7.org/fhir/us/qicore/StructureDefinition/qicore-encounter" ]
      },
      "status": "finished",
      "class": {
        "system": "http://terminology.hl7.org/CodeSystem/v3-ActCode",
        "code": "AMB",
        "display": "ambulatory",
        "userSelected": true
      },
      "type": [ {
        "coding": [ {
          "system": "http://snomed.info/sct",
          "code": "4525004"
        } ]
      } ],
      "subject": {
        "reference": "Patient/42386969-27af-4f2a-803c-139d480d69bc"
      },
      "period": {
        "start": "2024-04-24T08:00:00.000+00:00",
        "end": "2024-04-24T08:15:00.000+00:00"
      },
      "length": {
        "value": 0.0,
        "unit": "days"
      },
      "reasonCode": [ {
        "coding": [ {
          "system": "http://hl7.org/fhir/sid/icd-10-cm",
          "version": "2021",
          "code": "F33.9",
          "display": "Major depressive disorder, recurrent, unspecified",
          "userSelected": true
        } ]
      } ],
      "diagnosis": [ {
        "condition": {
          "reference": "Condition/major-depressive-disorder-active-a39d"
        },
        "use": {
          "coding": [ {
            "system": "http://snomed.info/sct",
            "version": "2022-09",
            "code": "10811161000119107",
            "display": "Major depressive disorder in mother complicating pregnancy (disorder)",
            "userSelected": true
          } ]
        }
      } ]
    }
  }, {
    "fullUrl": "5c98fd74b848464ed33ea063",
    "resource": {
      "resourceType": "Procedure",
      "id": "5c98fd74b848464ed33ea063",
      "meta": {
        "profile": [ "http://hl7.org/fhir/us/qicore/StructureDefinition/qicore-procedure" ]
      },
      "extension": [ {
        "url": "http://hl7.org/fhir/us/qicore/StructureDefinition/qicore-recorded",
        "valueDateTime": "2024-02-16T08:00:00.000Z"
      } ],
      "status": "completed",
      "code": {
        "coding": [ {
          "system": "http://snomed.info/sct",
          "code": "225337009"
        } ]
      },
      "subject": {
        "reference": "Patient/42386969-27af-4f2a-803c-139d480d69bc"
      },
      "performedDateTime": "2024-02-16T08:00:00.000+00:00"
    }
  }, {
    "fullUrl": "major-depressive-disorder-active-a39b",
    "resource": {
      "resourceType": "Condition",
      "id": "major-depressive-disorder-active-a39b",
      "meta": {
        "profile": [ "http://hl7.org/fhir/us/qicore/StructureDefinition/qicore-condition" ]
      },
      "category": [ {
        "coding": [ {
          "system": "http://terminology.hl7.org/CodeSystem/condition-category",
          "code": "encounter-diagnosis",
          "display": "Encounter Diagnosis"
        } ]
      } ],
      "code": {
        "coding": [ {
          "system": "http://snomed.info/sct",
          "version": "2022-09",
          "code": "10811121000119102",
          "display": "Major depressive disorder in mother complicating childbirth (disorder)",
          "userSelected": true
        } ]
      },
      "subject": {
        "reference": "Patient/42386969-27af-4f2a-803c-139d480d69bc"
      },
      "recordedDate": "2024-01-10T08:00:00.000+00:00"
    }
  }, {
    "fullUrl": "major-depressive-disorder-active-a39c",
    "resource": {
      "resourceType": "Condition",
      "id": "major-depressive-disorder-active-a39c",
      "meta": {
        "profile": [ "http://hl7.org/fhir/us/qicore/StructureDefinition/qicore-condition" ]
      },
      "category": [ {
        "coding": [ {
          "system": "http://terminology.hl7.org/CodeSystem/condition-category",
          "code": "encounter-diagnosis",
          "display": "Encounter Diagnosis"
        } ]
      } ],
      "code": {
        "coding": [ {
          "system": "http://snomed.info/sct",
          "version": "2022-09",
          "code": "10811121000119102",
          "display": "Major depressive disorder in mother complicating childbirth (disorder)",
          "userSelected": true
        } ]
      },
      "subject": {
        "reference": "Patient/42386969-27af-4f2a-803c-139d480d69bc"
      },
      "recordedDate": "2024-02-16T08:00:00.000+00:00"
    }
  }, {
    "fullUrl": "major-depressive-disorder-active-a39d",
    "resource": {
      "resourceType": "Condition",
      "id": "major-depressive-disorder-active-a39d",
      "meta": {
        "profile": [ "http://hl7.org/fhir/us/qicore/StructureDefinition/qicore-condition" ]
      },
      "category": [ {
        "coding": [ {
          "system": "http://terminology.hl7.org/CodeSystem/condition-category",
          "code": "encounter-diagnosis",
          "display": "Encounter Diagnosis"
        } ]
      } ],
      "code": {
        "coding": [ {
          "system": "http://snomed.info/sct",
          "version": "2022-09",
          "code": "10811121000119102",
          "display": "Major depressive disorder in mother complicating childbirth (disorder)",
          "userSelected": true
        } ]
      },
      "subject": {
        "reference": "Patient/42386969-27af-4f2a-803c-139d480d69bc"
      },
      "recordedDate": "2024-04-24T08:00:00.000+00:00"
    }
  }, {
    "fullUrl": "http://coverage/1",
    "resource": {
      "resourceType": "Coverage",
      "id": "1",
      "meta": {
        "profile": [ "http://hl7.org/fhir/us/qicore/StructureDefinition/qicore-coverage" ]
      },
      "status": "active",
      "beneficiary": {
        "reference": "Patient/42386969-27af-4f2a-803c-139d480d69bc"
      },
      "payor": [ {
        "reference": "Organization/123456"
      } ]
    }
  }, {
    "fullUrl": "http://Organization/123456",
    "resource": {
      "resourceType": "Organization",
      "id": "123456",
      "meta": {
        "profile": [ "http://hl7.org/fhir/us/qicore/StructureDefinition/qicore-organization" ]
      },
      "identifier": [ {
        "use": "temp",
        "system": "urn:oid:2.16.840.1.113883.4.4",
        "value": "21-3259825"
      } ],
      "active": true,
      "type": [ {
        "coding": [ {
          "system": "http://terminology.hl7.org/CodeSystem/organization-type",
          "code": "pay",
          "display": "Payer"
        } ]
      } ],
      "name": "Blue Cross Blue Shield of Texas",
      "telecom": [ {
        "system": "phone",
        "value": "(+1) 972-766-6900"
      } ],
      "address": [ {
        "use": "billing",
        "type": "postal",
        "line": [ "P.O. Box 660044" ],
        "city": "Dallas",
        "state": "TX",
        "postalCode": "75266-0044",
        "country": "USA"
      } ]
    }
  }, {
    "fullUrl": "http://Practitioner/123456",
    "resource": {
      "resourceType": "Practitioner",
      "id": "practitioner-123456",
      "meta": {
        "profile": [ "http://hl7.org/fhir/us/qicore/StructureDefinition/qicore-practitioner" ]
      },
      "identifier": [ {
        "system": "http://hl7.org/fhir/sid/us-npi",
        "value": "123456"
      } ],
      "name": [ {
        "family": "Evil",
        "prefix": [ "Dr" ]
      } ]
    }
  }, {
    "fullUrl": "https://madie.cms.gov/MeasureReport/6385047a4ba3d47c885c02c5/42386969-27af-4f2a-803c-139d480d69bc",
    "resource": {
      "resourceType": "MeasureReport",
      "id": "0b3dd936-848a-4f50-a297-3573f7723c03",
      "meta": {
        "profile": [ "http://hl7.org/fhir/us/cqfmeasures/StructureDefinition/test-case-cqfm" ]
      },
      "contained": [ {
        "resourceType": "Parameters",
        "id": "Assmt2ndEncLt104Days-parameters",
        "parameter": [ {
          "name": "subject",
          "valueString": "42386969-27af-4f2a-803c-139d480d69bc"
        } ]
      } ],
      "extension": [ {
        "url": "http://hl7.org/fhir/us/cqfmeasures/StructureDefinition/cqfm-inputParameters",
        "valueReference": {
          "reference": "#Assmt2ndEncLt104Days-parameters"
        }
      }, {
        "url": "http://hl7.org/fhir/us/cqfmeasures/StructureDefinition/cqfm-testCaseDescription",
        "valueMarkdown": "3 encounters, one (1) within 104 days of another (2) and another (3) that is 105 after (1), but the intervention is performed during encounter (2)"
      } ],
      "modifierExtension": [ {
        "url": "http://hl7.org/fhir/us/cqfmeasures/StructureDefinition/cqfm-isTestCase",
        "valueBoolean": true
      } ],
      "status": "complete",
      "type": "individual",
      "measure": "http://ecqi.healthit.gov/ecqms/Measure/AdultMajorDepressiveDisorderMDDSuicideRiskAssessmentFHIR",
      "period": {
        "start": "2024-01-01",
        "end": "2024-12-31"
      },
      "group": [ {
        "population": [ {
          "code": {
            "coding": [ {
              "system": "http://terminology.hl7.org/CodeSystem/measure-population",
              "code": "initial-population",
              "display": "Initial Population"
            } ]
          },
          "count": 1
        }, {
          "code": {
            "coding": [ {
              "system": "http://terminology.hl7.org/CodeSystem/measure-population",
              "code": "denominator",
              "display": "Denominator"
            } ]
          },
          "count": 1
        }, {
          "code": {
            "coding": [ {
              "system": "http://terminology.hl7.org/CodeSystem/measure-population",
              "code": "numerator",
              "display": "Numerator"
            } ]
          },
          "count": 0
        } ]
      } ],
      "evaluatedResource": [ {
        "reference": "https://madie.cms.gov/Patient/42386969-27af-4f2a-803c-139d480d69bc"
      }, {
        "reference": "Encounter/5c98fd74b848464ed33ea060"
      }, {
        "reference": "Encounter/5c98fd74b848464ed33ea061"
      }, {
        "reference": "Encounter/5c98fd74b848464ed33ea062"
      }, {
        "reference": "Procedure/5c98fd74b848464ed33ea063"
      }, {
        "reference": "Condition/major-depressive-disorder-active-a39b"
      }, {
        "reference": "Condition/major-depressive-disorder-active-a39c"
      }, {
        "reference": "Condition/major-depressive-disorder-active-a39d"
      }, {
        "reference": "Coverage/1"
      }, {
        "reference": "Organization/123456"
      }, {
        "reference": "Practitioner/practitioner-123456"
      } ]
    }
  } ]
}