{
  "resourceType": "Bundle",
  "id": "610965b998086b538055c15b",
  "type": "collection",
  "entry": [ {
    "fullUrl": "https://madie.cms.gov/Patient/3b956fce-b7d6-44c6-ac9f-11260fec4d71",
    "resource": {
      "resourceType": "Patient",
      "id": "3b956fce-b7d6-44c6-ac9f-11260fec4d71",
      "meta": {
        "profile": [ "http://hl7.org/fhir/us/qicore/StructureDefinition/qicore-patient" ]
      },
      "text": {
        "status": "generated",
        "div": "<div xmlns=\"http://www.w3.org/1999/xhtml\"><div class=\"hapiHeaderText\">TwoHIVDxBothInvalidTiming <b>DENEXFAIL </b></div><table class=\"hapiPropertyTable\"><tbody><tr><td>Identifier</td><td>9c54a4dd540c4bea149b36532d75fcb36030130b66a16274ae97dc73d2d880c3</td></tr><tr><td>Date of birth</td><td><span>31 July 1992</span></td></tr></tbody></table></div>"
      },
      "extension": [ {
        "url": "http://hl7.org/fhir/us/core/StructureDefinition/us-core-race",
        "extension": [ {
          "url": "ombCategory",
          "valueCoding": {
            "system": "urn:oid:2.16.840.1.113883.6.238",
            "code": "2106-3",
            "display": "White",
            "userSelected": true
          }
        }, {
          "url": "text",
          "valueString": "White"
        } ]
      }, {
        "url": "http://hl7.org/fhir/us/core/StructureDefinition/us-core-ethnicity",
        "extension": [ {
          "url": "ombCategory",
          "valueCoding": {
            "system": "urn:oid:2.16.840.1.113883.6.238",
            "code": "2135-2",
            "display": "Hispanic or Latino",
            "userSelected": true
          }
        }, {
          "url": "text",
          "valueString": "Hispanic or Latino"
        } ]
      } ],
      "identifier": [ {
        "type": {
          "coding": [ {
            "system": "http://terminology.hl7.org/CodeSystem/v2-0203",
            "code": "MR"
          } ]
        },
        "system": "https://bonnie-fhir.healthit.gov/",
        "value": "610965b998086b538055c15b"
      } ],
      "active": true,
      "name": [ {
        "use": "usual",
        "family": "DENEXFail",
        "given": [ "TwoHIVDxBothInvalidTiming" ]
      } ],
      "gender": "male",
      "birthDate": "1993-07-31"
    }
  }, {
    "fullUrl": "5e4d6d5e20c7500000c66ac7",
    "resource": {
      "resourceType": "Condition",
      "id": "5e4d6d5e20c7500000c66ac7",
      "meta": {
        "profile": [ "http://hl7.org/fhir/us/qicore/StructureDefinition/qicore-condition" ]
      },
      "clinicalStatus": {
        "coding": [ {
          "system": "http://terminology.hl7.org/CodeSystem/condition-clinical",
          "code": "active",
          "display": "Active",
          "userSelected": true
        } ]
      },
      "category": [ {
        "coding": [ {
          "system": "http://terminology.hl7.org/CodeSystem/condition-category",
          "code": "encounter-diagnosis",
          "display": "Encounter Diagnosis",
          "userSelected": true
        } ]
      } ],
      "code": {
        "coding": [ {
          "system": "http://hl7.org/fhir/sid/icd-9-cm",
          "code": "042"
        } ]
      },
      "subject": {
        "reference": "Patient/3b956fce-b7d6-44c6-ac9f-11260fec4d71"
      },
      "recordedDate": "2012-10-24T08:00:00+00:00"
    }
  }, {
    "fullUrl": "5e5978c39ec84a00005dc7d1",
    "resource": {
      "resourceType": "Condition",
      "id": "5e5978c39ec84a00005dc7d1",
      "meta": {
        "profile": [ "http://hl7.org/fhir/us/qicore/StructureDefinition/qicore-condition" ]
      },
      "clinicalStatus": {
        "coding": [ {
          "system": "http://terminology.hl7.org/CodeSystem/condition-clinical",
          "code": "active",
          "display": "active",
          "userSelected": true
        } ]
      },
      "category": [ {
        "coding": [ {
          "system": "http://terminology.hl7.org/CodeSystem/condition-category",
          "code": "encounter-diagnosis",
          "display": "Encounter Diagnosis",
          "userSelected": true
        } ]
      } ],
      "code": {
        "coding": [ {
          "system": "http://hl7.org/fhir/sid/icd-9-cm",
          "code": "042"
        } ]
      },
      "subject": {
        "reference": "Patient/3b956fce-b7d6-44c6-ac9f-11260fec4d71"
      },
      "onsetDateTime": "2024-05-10T08:00:00.000+00:00"
    }
  }, {
    "fullUrl": "5c9e578cb8484602c2f92241",
    "resource": {
      "resourceType": "Encounter",
      "id": "5c9e578cb8484602c2f92241",
      "meta": {
        "profile": [ "http://hl7.org/fhir/us/qicore/StructureDefinition/qicore-encounter" ]
      },
      "status": "finished",
      "class": {
        "system": "http://terminology.hl7.org/CodeSystem/v3-ActCode",
        "code": "AMB",
        "display": "ambulatory",
        "userSelected": true
      },
      "type": [ {
        "coding": [ {
          "system": "http://www.ama-assn.org/go/cpt",
          "code": "99395"
        } ]
      } ],
      "subject": {
        "reference": "Patient/3b956fce-b7d6-44c6-ac9f-11260fec4d71"
      },
      "period": {
        "start": "2024-10-24T08:00:00.000+00:00",
        "end": "2024-10-24T08:30:00.000+00:00"
      }
    }
  }, {
    "fullUrl": "https://madie.cms.gov/MeasureReport/6385057e4ba3d47c885c02cd/3b956fce-b7d6-44c6-ac9f-11260fec4d71",
    "resource": {
      "resourceType": "MeasureReport",
      "id": "0d02737b-2afa-4faf-8f78-fe6fb9741b09",
      "meta": {
        "profile": [ "http://hl7.org/fhir/us/cqfmeasures/StructureDefinition/test-case-cqfm" ]
      },
      "contained": [ {
        "resourceType": "Parameters",
        "id": "TwoHIVDxBothInvalidTiming-parameters",
        "parameter": [ {
          "name": "subject",
          "valueString": "3b956fce-b7d6-44c6-ac9f-11260fec4d71"
        } ]
      } ],
      "extension": [ {
        "url": "http://hl7.org/fhir/us/cqfmeasures/StructureDefinition/cqfm-inputParameters",
        "valueReference": {
          "reference": "#TwoHIVDxBothInvalidTiming-parameters"
        }
      }, {
        "url": "http://hl7.org/fhir/us/cqfmeasures/StructureDefinition/cqfm-testCaseDescription",
        "valueMarkdown": "Patient 20 at start of MP, qual encounter during MP, two HIV diagnoses, one authorDatetime before MP, one valid during MP."
      } ],
      "modifierExtension": [ {
        "url": "http://hl7.org/fhir/us/cqfmeasures/StructureDefinition/cqfm-isTestCase",
        "valueBoolean": true
      } ],
      "status": "complete",
      "type": "individual",
      "measure": "http://ecqi.healthit.gov/ecqms/Measure/HIVScreeningFHIR",
      "period": {
        "start": "2024-01-01",
        "end": "2024-12-31"
      },
      "group": [ {
        "population": [ {
          "code": {
            "coding": [ {
              "system": "http://terminology.hl7.org/CodeSystem/measure-population",
              "code": "initial-population",
              "display": "Initial Population"
            } ]
          },
          "count": 1
        }, {
          "code": {
            "coding": [ {
              "system": "http://terminology.hl7.org/CodeSystem/measure-population",
              "code": "denominator",
              "display": "Denominator"
            } ]
          },
          "count": 1
        }, {
          "code": {
            "coding": [ {
              "system": "http://terminology.hl7.org/CodeSystem/measure-population",
              "code": "denominator-exclusion",
              "display": "Denominator Exclusion"
            } ]
          },
          "count": 0
        }, {
          "code": {
            "coding": [ {
              "system": "http://terminology.hl7.org/CodeSystem/measure-population",
              "code": "numerator",
              "display": "Numerator"
            } ]
          },
          "count": 0
        } ]
      } ],
      "evaluatedResource": [ {
        "reference": "https://madie.cms.gov/Patient/3b956fce-b7d6-44c6-ac9f-11260fec4d71"
      }, {
        "reference": "Condition/5e4d6d5e20c7500000c66ac7"
      }, {
        "reference": "Condition/5e5978c39ec84a00005dc7d1"
      }, {
        "reference": "Encounter/5c9e578cb8484602c2f92241"
      } ]
    }
  } ]
}