{"resourceType":"Bundle","id":"tests-32faa6ed-8228-473f-b1d2-715ea6e66ba2-bundle","type":"transaction","entry":[{"resource":{"resourceType":"Bundle","id":"610965b998086b538055c162","type":"collection","entry":[{"fullUrl":"https://madie.cms.gov/Patient/32faa6ed-8228-473f-b1d2-715ea6e66ba2","resource":{"resourceType":"Patient","id":"32faa6ed-8228-473f-b1d2-715ea6e66ba2","meta":{"profile":["http://hl7.org/fhir/us/qicore/StructureDefinition/qicore-patient"]},"text":{"status":"generated","div":"<div xmlns=\"http://www.w3.org/1999/xhtml\"><div class=\"hapiHeaderText\">Age65atstartofMP <b>IPPASS </b></div><table class=\"hapiPropertyTable\"><tbody><tr><td>Date of birth</td><td><span>01 January 1947</span></td></tr></tbody></table></div>"},"extension":[{"url":"http://hl7.org/fhir/us/core/StructureDefinition/us-core-race","extension":[{"url":"ombCategory","valueCoding":{"system":"urn:oid:2.16.840.1.113883.6.238","code":"2028-9","display":"Asian","userSelected":true}},{"url":"text","valueString":"Asian"}]},{"url":"http://hl7.org/fhir/us/core/StructureDefinition/us-core-ethnicity","extension":[{"url":"ombCategory","valueCoding":{"system":"urn:oid:2.16.840.1.113883.6.238","code":"2186-5","display":"Not Hispanic or Latino","userSelected":true}},{"url":"text","valueString":"Not Hispanic or Latino"}]}],"identifier":[{"type":{"coding":[{"system":"http://terminology.hl7.org/CodeSystem/v2-0203","code":"MR"}]},"system":"https://bonnie-fhir.healthit.gov/","value":"610965b998086b538055c162"}],"active":true,"name":[{"use":"usual","family":"IPPPass","given":["Age65Jan1"]}],"gender":"male","birthDate":"1959-01-01"}},{"fullUrl":"602ac29137c1b30000556de8","resource":{"resourceType":"Encounter","id":"602ac29137c1b30000556de8","meta":{"profile":["http://hl7.org/fhir/us/qicore/StructureDefinition/qicore-encounter"]},"status":"finished","class":{"system":"http://terminology.hl7.org/CodeSystem/v3-ActCode","code":"AMB","display":"ambulatory","userSelected":true},"type":[{"coding":[{"system":"http://www.ama-assn.org/go/cpt","code":"99386"}]}],"subject":{"reference":"Patient/32faa6ed-8228-473f-b1d2-715ea6e66ba2"},"period":{"start":"2024-02-15T08:00:00.000+00:00","end":"2024-02-15T08:15:00.000+00:00"}}},{"fullUrl":"https://madie.cms.gov/MeasureReport/6385057e4ba3d47c885c02cd/32faa6ed-8228-473f-b1d2-715ea6e66ba2","resource":{"resourceType":"MeasureReport","id":"ae3d76db-ad21-4114-bc26-724228d1b55f","meta":{"profile":["http://hl7.org/fhir/us/cqfmeasures/StructureDefinition/test-case-cqfm"]},"contained":[{"resourceType":"Parameters","id":"Age65Jan1-parameters","parameter":[{"name":"subject","valueString":"32faa6ed-8228-473f-b1d2-715ea6e66ba2"}]}],"extension":[{"url":"http://hl7.org/fhir/us/cqfmeasures/StructureDefinition/cqfm-inputParameters","valueReference":{"reference":"#Age65Jan1-parameters"}},{"url":"http://hl7.org/fhir/us/cqfmeasures/StructureDefinition/cqfm-testCaseDescription","valueMarkdown":"Patient is age 65 on start of MP with a qualifying encounter"}],"modifierExtension":[{"url":"http://hl7.org/fhir/us/cqfmeasures/StructureDefinition/cqfm-isTestCase","valueBoolean":true}],"status":"complete","type":"individual","measure":"http://ecqi.healthit.gov/ecqms/Measure/HIVScreeningFHIR","period":{"start":"2024-01-01","end":"2024-12-31"},"group":[{"population":[{"code":{"coding":[{"system":"http://terminology.hl7.org/CodeSystem/measure-population","code":"initial-population","display":"Initial Population"}]},"count":1},{"code":{"coding":[{"system":"http://terminology.hl7.org/CodeSystem/measure-population","code":"denominator","display":"Denominator"}]},"count":1},{"code":{"coding":[{"system":"http://terminology.hl7.org/CodeSystem/measure-population","code":"denominator-exclusion","display":"Denominator Exclusion"}]},"count":0},{"code":{"coding":[{"system":"http://terminology.hl7.org/CodeSystem/measure-population","code":"numerator","display":"Numerator"}]},"count":0}]}],"evaluatedResource":[{"reference":"https://madie.cms.gov/Patient/32faa6ed-8228-473f-b1d2-715ea6e66ba2"},{"reference":"Encounter/602ac29137c1b30000556de8"}]}}]},"request":{"method":"PUT","url":"Bundle/610965b998086b538055c162"}}]}