{"resourceType":"Bundle","id":"tests-b03e8b62-8b46-442b-90ae-fc8b7cdfaf5c-bundle","type":"transaction","entry":[{"resource":{"resourceType":"Bundle","id":"610965b898086b538055c145","type":"collection","entry":[{"fullUrl":"https://madie.cms.gov/Patient/b03e8b62-8b46-442b-90ae-fc8b7cdfaf5c","resource":{"resourceType":"Patient","id":"b03e8b62-8b46-442b-90ae-fc8b7cdfaf5c","meta":{"profile":["http://hl7.org/fhir/us/qicore/StructureDefinition/qicore-patient"]},"text":{"status":"generated","div":"<div xmlns=\"http://www.w3.org/1999/xhtml\"><div class=\"hapiHeaderText\">PatientTooOld <b>IPPFAIL </b></div><table class=\"hapiPropertyTable\"><tbody><tr><td>Identifier</td><td>ab3ba8887bf55b4391be536ef8a7da1632a707e33469b64ef734270609d3b4b0</td></tr><tr><td>Date of birth</td><td><span>01 January 1946</span></td></tr></tbody></table></div>"},"extension":[{"url":"http://hl7.org/fhir/us/core/StructureDefinition/us-core-race","extension":[{"url":"ombCategory","valueCoding":{"system":"urn:oid:2.16.840.1.113883.6.238","code":"1002-5","display":"American Indian or Alaska Native","userSelected":true}},{"url":"text","valueString":"American Indian or Alaska Native"}]},{"url":"http://hl7.org/fhir/us/core/StructureDefinition/us-core-ethnicity","extension":[{"url":"ombCategory","valueCoding":{"system":"urn:oid:2.16.840.1.113883.6.238","code":"2135-2","display":"Hispanic or Latino","userSelected":true}},{"url":"text","valueString":"Hispanic or Latino"}]}],"identifier":[{"type":{"coding":[{"system":"http://terminology.hl7.org/CodeSystem/v2-0203","code":"MR"}]},"system":"https://bonnie-fhir.healthit.gov/","value":"610965b898086b538055c145"}],"active":true,"name":[{"use":"usual","family":"IPPFail","given":["PatientTooOld"]}],"gender":"male","birthDate":"1958-01-01"}},{"fullUrl":"5c9e578cb8484602c2f9221d","resource":{"resourceType":"Encounter","id":"5c9e578cb8484602c2f9221d","meta":{"profile":["http://hl7.org/fhir/us/qicore/StructureDefinition/qicore-encounter"]},"status":"finished","class":{"system":"http://terminology.hl7.org/CodeSystem/v3-ActCode","code":"AMB","display":"ambulatory","userSelected":true},"type":[{"coding":[{"system":"http://www.ama-assn.org/go/cpt","code":"99385"}]}],"subject":{"reference":"Patient/b03e8b62-8b46-442b-90ae-fc8b7cdfaf5c"},"period":{"start":"2024-10-24T08:00:00.000+00:00","end":"2024-10-24T08:15:00.000+00:00"}}},{"fullUrl":"https://madie.cms.gov/MeasureReport/6385057e4ba3d47c885c02cd/b03e8b62-8b46-442b-90ae-fc8b7cdfaf5c","resource":{"resourceType":"MeasureReport","id":"b607017f-f417-4be2-ac90-b7cfca80fdeb","meta":{"profile":["http://hl7.org/fhir/us/cqfmeasures/StructureDefinition/test-case-cqfm"]},"contained":[{"resourceType":"Parameters","id":"PatientTooOld-parameters","parameter":[{"name":"subject","valueString":"b03e8b62-8b46-442b-90ae-fc8b7cdfaf5c"}]}],"extension":[{"url":"http://hl7.org/fhir/us/cqfmeasures/StructureDefinition/cqfm-inputParameters","valueReference":{"reference":"#PatientTooOld-parameters"}},{"url":"http://hl7.org/fhir/us/cqfmeasures/StructureDefinition/cqfm-testCaseDescription","valueMarkdown":"Patient too old, 66 at start of MP, with qualifying encounter."}],"modifierExtension":[{"url":"http://hl7.org/fhir/us/cqfmeasures/StructureDefinition/cqfm-isTestCase","valueBoolean":true}],"status":"complete","type":"individual","measure":"http://ecqi.healthit.gov/ecqms/Measure/HIVScreeningFHIR","period":{"start":"2024-01-01","end":"2024-12-31"},"group":[{"population":[{"code":{"coding":[{"system":"http://terminology.hl7.org/CodeSystem/measure-population","code":"initial-population","display":"Initial Population"}]},"count":0},{"code":{"coding":[{"system":"http://terminology.hl7.org/CodeSystem/measure-population","code":"denominator","display":"Denominator"}]},"count":0},{"code":{"coding":[{"system":"http://terminology.hl7.org/CodeSystem/measure-population","code":"denominator-exclusion","display":"Denominator Exclusion"}]},"count":0},{"code":{"coding":[{"system":"http://terminology.hl7.org/CodeSystem/measure-population","code":"numerator","display":"Numerator"}]},"count":0}]}],"evaluatedResource":[{"reference":"https://madie.cms.gov/Patient/b03e8b62-8b46-442b-90ae-fc8b7cdfaf5c"},{"reference":"Encounter/5c9e578cb8484602c2f9221d"}]}}]},"request":{"method":"PUT","url":"Bundle/610965b898086b538055c145"}}]}