{"resourceType":"Bundle","id":"tests-51e7a2c7-a16e-49b3-8da8-9d218ee7007b-bundle","type":"transaction","entry":[{"resource":{"resourceType":"Bundle","id":"6109650598086b538055a0e0","type":"collection","entry":[{"fullUrl":"https://madie.cms.gov/Patient/51e7a2c7-a16e-49b3-8da8-9d218ee7007b","resource":{"resourceType":"Patient","id":"51e7a2c7-a16e-49b3-8da8-9d218ee7007b","meta":{"profile":["http://hl7.org/fhir/us/qicore/StructureDefinition/qicore-patient"]},"text":{"status":"generated","div":"<div xmlns=\"http://www.w3.org/1999/xhtml\"><div class=\"hapiHeaderText\">AgeLessThan6OneDayBeforeEnc <b>IPPFAIL </b></div><table class=\"hapiPropertyTable\"><tbody><tr><td>Identifier</td><td>0a77611c25e04fb905831b43a3b32b12</td></tr><tr><td>Date of birth</td><td><span>31 December 2006</span></td></tr></tbody></table></div>"},"extension":[{"url":"http://hl7.org/fhir/us/core/StructureDefinition/us-core-race","extension":[{"url":"ombCategory","valueCoding":{"system":"urn:oid:2.16.840.1.113883.6.238","code":"1002-5","display":"American Indian or Alaska Native","userSelected":true}},{"url":"text","valueString":"American Indian or Alaska Native"}]},{"url":"http://hl7.org/fhir/us/core/StructureDefinition/us-core-ethnicity","extension":[{"url":"ombCategory","valueCoding":{"system":"urn:oid:2.16.840.1.113883.6.238","code":"2135-2","display":"Hispanic or Latino","userSelected":true}},{"url":"text","valueString":"Hispanic or Latino"}]}],"identifier":[{"type":{"coding":[{"system":"http://terminology.hl7.org/CodeSystem/v2-0203","code":"MR"}]},"system":"https://bonnie-fhir.healthit.gov/","value":"6109650598086b538055a0e0"}],"active":true,"name":[{"use":"usual","family":"IPFail","given":["AgeLessThan6OneDayBeforeEnc"]}],"gender":"male","birthDate":"2018-12-31"}},{"fullUrl":"5e4aee02bd36f900007c812f","resource":{"resourceType":"Encounter","id":"5e4aee02bd36f900007c812f","meta":{"profile":["http://hl7.org/fhir/us/qicore/StructureDefinition/qicore-encounter"]},"status":"finished","class":{"system":"http://terminology.hl7.org/CodeSystem/v3-ActCode","code":"AMB","display":"ambulatory","userSelected":true},"type":[{"coding":[{"system":"http://snomed.info/sct","code":"281036007"}]}],"subject":{"reference":"Patient/51e7a2c7-a16e-49b3-8da8-9d218ee7007b"},"period":{"start":"2024-02-17T08:00:00.000+00:00","end":"2024-02-17T08:15:00.000+00:00"},"diagnosis":[{"condition":{"reference":"Condition/major-depressive-disorder-active-a4a0"},"use":{"coding":[{"system":"http://snomed.info/sct","version":"2022-09","code":"10811161000119107","display":"Major depressive disorder in mother complicating pregnancy (disorder)","userSelected":true}]}}]}},{"fullUrl":"major-depressive-disorder-active-a4a0","resource":{"resourceType":"Condition","id":"major-depressive-disorder-active-a4a0","meta":{"profile":["http://hl7.org/fhir/us/qicore/StructureDefinition/qicore-condition"]},"category":[{"coding":[{"system":"http://terminology.hl7.org/CodeSystem/condition-category","code":"encounter-diagnosis","display":"Encounter Diagnosis"}]}],"code":{"coding":[{"system":"http://snomed.info/sct","version":"2022-09","code":"10811121000119102","display":"Major depressive disorder in mother complicating childbirth (disorder)","userSelected":true}]},"subject":{"reference":"Patient/51e7a2c7-a16e-49b3-8da8-9d218ee7007b"},"recordedDate":"2024-02-17T08:00:00.000+00:00"}},{"fullUrl":"http://coverage/1","resource":{"resourceType":"Coverage","id":"1","meta":{"profile":["http://hl7.org/fhir/us/qicore/StructureDefinition/qicore-coverage"]},"status":"active","beneficiary":{"reference":"Patient/51e7a2c7-a16e-49b3-8da8-9d218ee7007b"},"payor":[{"reference":"Organization/123456"}]}},{"fullUrl":"http://Organization/123456","resource":{"resourceType":"Organization","id":"123456","meta":{"profile":["http://hl7.org/fhir/us/qicore/StructureDefinition/qicore-organization"]},"identifier":[{"use":"temp","system":"urn:oid:2.16.840.1.113883.4.4","value":"21-3259825"}],"active":true,"type":[{"coding":[{"system":"http://terminology.hl7.org/CodeSystem/organization-type","code":"pay","display":"Payer"}]}],"name":"Blue Cross Blue Shield of Texas","telecom":[{"system":"phone","value":"(+1) 972-766-6900"}],"address":[{"use":"billing","type":"postal","line":["P.O. Box 660044"],"city":"Dallas","state":"TX","postalCode":"75266-0044","country":"USA"}]}},{"fullUrl":"http://Practitioner/123456","resource":{"resourceType":"Practitioner","id":"practitioner-123456","meta":{"profile":["http://hl7.org/fhir/us/qicore/StructureDefinition/qicore-practitioner"]},"identifier":[{"system":"http://hl7.org/fhir/sid/us-npi","value":"123456"}],"name":[{"family":"Evil","prefix":["Dr"]}]}},{"fullUrl":"https://madie.cms.gov/MeasureReport/638504914ba3d47c885c02c7/51e7a2c7-a16e-49b3-8da8-9d218ee7007b","resource":{"resourceType":"MeasureReport","id":"41f7802b-c8df-48e6-8098-19c59c6e508c","meta":{"profile":["http://hl7.org/fhir/us/cqfmeasures/StructureDefinition/test-case-cqfm"]},"contained":[{"resourceType":"Parameters","id":"AgeLessThan6OneDayBeforeEnc-parameters","parameter":[{"name":"subject","valueString":"51e7a2c7-a16e-49b3-8da8-9d218ee7007b"}]}],"extension":[{"url":"http://hl7.org/fhir/us/cqfmeasures/StructureDefinition/cqfm-inputParameters","valueReference":{"reference":"#AgeLessThan6OneDayBeforeEnc-parameters"}},{"url":"http://hl7.org/fhir/us/cqfmeasures/StructureDefinition/cqfm-testCaseDescription","valueMarkdown":"Patient is under 6 years of age one day before MP."}],"modifierExtension":[{"url":"http://hl7.org/fhir/us/cqfmeasures/StructureDefinition/cqfm-isTestCase","valueBoolean":true}],"status":"complete","type":"individual","measure":"http://ecqi.healthit.gov/ecqms/Measure/ChildandAdolescentMajorDepressiveDisorderMDDSuicideRiskAssessmentFHIR","period":{"start":"2024-01-01","end":"2024-12-31"},"group":[{"population":[{"code":{"coding":[{"system":"http://terminology.hl7.org/CodeSystem/measure-population","code":"initial-population","display":"Initial Population"}]},"count":0},{"code":{"coding":[{"system":"http://terminology.hl7.org/CodeSystem/measure-population","code":"denominator","display":"Denominator"}]},"count":0},{"code":{"coding":[{"system":"http://terminology.hl7.org/CodeSystem/measure-population","code":"numerator","display":"Numerator"}]},"count":0}]}],"evaluatedResource":[{"reference":"https://madie.cms.gov/Patient/51e7a2c7-a16e-49b3-8da8-9d218ee7007b"},{"reference":"Encounter/5e4aee02bd36f900007c812f"},{"reference":"Condition/major-depressive-disorder-active-a4a0"},{"reference":"Coverage/1"},{"reference":"Organization/123456"},{"reference":"Practitioner/practitioner-123456"}]}}]},"request":{"method":"PUT","url":"Bundle/6109650598086b538055a0e0"}}]}