{"resourceType":"Bundle","id":"tests-5177b27f-59bc-460e-ae96-88a0baa325d5-bundle","type":"transaction","entry":[{"resource":{"resourceType":"Bundle","id":"61095b0998086b53805591a5","type":"collection","entry":[{"fullUrl":"https://madie.cms.gov/Patient/5177b27f-59bc-460e-ae96-88a0baa325d5","resource":{"resourceType":"Patient","id":"5177b27f-59bc-460e-ae96-88a0baa325d5","meta":{"profile":["http://hl7.org/fhir/us/qicore/StructureDefinition/qicore-patient"]},"text":{"status":"generated","div":"<div xmlns=\"http://www.w3.org/1999/xhtml\"><div class=\"hapiHeaderText\">Age@18 <b>DENOMPASS </b></div><table class=\"hapiPropertyTable\"><tbody><tr><td>Identifier</td><td>67f3e33acf17bcb386e754d726ed064ccd48ba21ff0ffb2eb678740a684398be</td></tr><tr><td>Date of birth</td><td><span>01 January 1994</span></td></tr></tbody></table></div>"},"extension":[{"url":"http://hl7.org/fhir/us/core/StructureDefinition/us-core-race","extension":[{"url":"ombCategory","valueCoding":{"system":"urn:oid:2.16.840.1.113883.6.238","code":"1002-5","display":"American Indian or Alaska Native","userSelected":true}},{"url":"text","valueString":"American Indian or Alaska Native"}]},{"url":"http://hl7.org/fhir/us/core/StructureDefinition/us-core-ethnicity","extension":[{"url":"ombCategory","valueCoding":{"system":"urn:oid:2.16.840.1.113883.6.238","code":"2135-2","display":"Hispanic or Latino","userSelected":true}},{"url":"text","valueString":"Hispanic or Latino"}]}],"identifier":[{"type":{"coding":[{"system":"http://terminology.hl7.org/CodeSystem/v2-0203","code":"MR"}]},"system":"https://bonnie-fhir.healthit.gov/","value":"61095b0998086b53805591a5"}],"active":true,"name":[{"use":"usual","family":"DENEXPASS","given":["BurnsOverlapsCatSurg"]}],"gender":"female","birthDate":"1994-01-01"}},{"fullUrl":"http://myGoodHealthcare.com/fhir/Observation/5c9a4252b84846291b7a7085","resource":{"resourceType":"Observation","id":"5c9a4252b84846291b7a7085","meta":{"profile":["http://hl7.org/fhir/us/qicore/StructureDefinition/qicore-observation"]},"status":"final","category":[{"coding":[{"system":"http://terminology.hl7.org/CodeSystem/observation-category","code":"exam","display":"exam"}]}],"code":{"coding":[{"system":"http://snomed.info/sct","code":"419775003"}]},"subject":{"reference":"Patient/5177b27f-59bc-460e-ae96-88a0baa325d5"},"effectivePeriod":{"start":"2024-03-13T09:00:00+00:00","end":"2024-03-13T09:30:00+00:00"}}},{"fullUrl":"http://myGoodHealthcare.com/fhir/Procedure/5c9a4252b84846291b7a7084","resource":{"resourceType":"Procedure","id":"5c9a4252b84846291b7a7084","meta":{"profile":["http://hl7.org/fhir/us/qicore/StructureDefinition/qicore-procedure"]},"extension":[{"url":"http://hl7.org/fhir/us/qicore/StructureDefinition/qicore-recorded","valueDateTime":"2024-03-05T09:35:00-04:00"}],"status":"completed","code":{"coding":[{"system":"http://snomed.info/sct","code":"84149000"}]},"subject":{"reference":"Patient/5177b27f-59bc-460e-ae96-88a0baa325d5"},"performedPeriod":{"start":"2024-03-05T09:20:00-04:00","end":"2024-04-05T10:30:00-04:00"}}},{"fullUrl":"http://myGoodHealthcare.com/fhir/Condition/BurnConfinedtoEyeandAdnexa","resource":{"resourceType":"Condition","id":"BurnConfinedtoEyeandAdnexa","meta":{"profile":["http://hl7.org/fhir/us/qicore/StructureDefinition/qicore-condition"]},"clinicalStatus":{"coding":[{"system":"http://terminology.hl7.org/CodeSystem/condition-clinical","code":"active","display":"active","userSelected":true}]},"category":[{"coding":[{"system":"http://terminology.hl7.org/CodeSystem/condition-clinical","code":"active","display":"active","userSelected":true}]}],"code":{"coding":[{"system":"http://hl7.org/fhir/sid/icd-10-cm","code":"T26.22XA","userSelected":true},{"system":"http://snomed.info/sct","code":"418591009","userSelected":true}]},"subject":{"reference":"Patient/5177b27f-59bc-460e-ae96-88a0baa325d5"},"onsetDateTime":"2022-11-01T08:00:00.000+00:00"}},{"fullUrl":"http://myGoodHealthcare.com/fhir/Coverage/61095b0998086b53805591a5","resource":{"resourceType":"Coverage","id":"1","meta":{"profile":["http://hl7.org/fhir/us/qicore/StructureDefinition/qicore-coverage"]},"status":"active","beneficiary":{"reference":"Patient/5177b27f-59bc-460e-ae96-88a0baa325d5"},"payor":[{"reference":"Organization/123456"}]}},{"fullUrl":"http://myGoodHealthcare.com/fhir/Organization/123456","resource":{"resourceType":"Organization","id":"123456","meta":{"profile":["http://hl7.org/fhir/us/qicore/StructureDefinition/qicore-organization"]},"identifier":[{"use":"temp","system":"urn:oid:2.16.840.1.113883.4.4","value":"21-3259825"}],"active":true,"type":[{"coding":[{"system":"http://terminology.hl7.org/CodeSystem/organization-type","code":"pay","display":"Payer"}]}],"name":"Blue Cross Blue Shield of Texas","telecom":[{"system":"phone","value":"(+1) 972-766-6900"}],"address":[{"use":"billing","type":"postal","line":["P.O. Box 660044"],"city":"Dallas","state":"TX","postalCode":"75266-0044","country":"USA"}]}},{"fullUrl":"http://myGoodHealthcare.com/fhir/Practitioner/123456","resource":{"resourceType":"Practitioner","id":"practitioner-123456","meta":{"profile":["http://hl7.org/fhir/us/qicore/StructureDefinition/qicore-practitioner"]},"identifier":[{"system":"http://hl7.org/fhir/sid/us-npi","value":"123456"}],"name":[{"family":"Evil","prefix":["Dr"]}]}},{"fullUrl":"https://madie.cms.gov/MeasureReport/64529e07beb771640fc4cc0a/5177b27f-59bc-460e-ae96-88a0baa325d5","resource":{"resourceType":"MeasureReport","id":"2fc47226-c9cc-481a-aa96-cbd21028b685","meta":{"profile":["http://hl7.org/fhir/us/cqfmeasures/StructureDefinition/test-case-cqfm"]},"contained":[{"resourceType":"Parameters","id":"BurnsOverlapsCatSurg-parameters","parameter":[{"name":"subject","valueString":"5177b27f-59bc-460e-ae96-88a0baa325d5"}]}],"extension":[{"url":"http://hl7.org/fhir/us/cqfmeasures/StructureDefinition/cqfm-inputParameters","valueReference":{"reference":"#BurnsOverlapsCatSurg-parameters"}},{"url":"http://hl7.org/fhir/us/cqfmeasures/StructureDefinition/cqfm-testCaseDescription","valueMarkdown":"Patient with burns of eye or adnexa overlapping cataract surgery. "}],"modifierExtension":[{"url":"http://hl7.org/fhir/us/cqfmeasures/StructureDefinition/cqfm-isTestCase","valueBoolean":true}],"status":"complete","type":"individual","measure":"http://ecqi.healthit.gov/ecqms/Measure/Cataracts2040BCVAwithin90DaysFHIR","period":{"start":"2024-01-01","end":"2024-12-31"},"group":[{"population":[{"code":{"coding":[{"system":"http://terminology.hl7.org/CodeSystem/measure-population","code":"initial-population","display":"Initial Population"}]},"count":1},{"code":{"coding":[{"system":"http://terminology.hl7.org/CodeSystem/measure-population","code":"denominator","display":"Denominator"}]},"count":1},{"code":{"coding":[{"system":"http://terminology.hl7.org/CodeSystem/measure-population","code":"denominator-exclusion","display":"Denominator Exclusion"}]},"count":1},{"code":{"coding":[{"system":"http://terminology.hl7.org/CodeSystem/measure-population","code":"numerator","display":"Numerator"}]},"count":0}]}],"evaluatedResource":[{"reference":"https://madie.cms.gov/Patient/5177b27f-59bc-460e-ae96-88a0baa325d5"},{"reference":"http://myGoodHealthcare.com/fhir/Observation/5c9a4252b84846291b7a7085"},{"reference":"http://myGoodHealthcare.com/fhir/Procedure/5c9a4252b84846291b7a7084"},{"reference":"http://myGoodHealthcare.com/fhir/Condition/BurnConfinedtoEyeandAdnexa"},{"reference":"Coverage/1"},{"reference":"http://myGoodHealthcare.com/fhir/Organization/123456"},{"reference":"Practitioner/practitioner-123456"}]}}]},"request":{"method":"PUT","url":"Bundle/61095b0998086b53805591a5"}}]}