{"resourceType":"Bundle","id":"tests-34a7b6cd-b70b-4983-8d12-d13862ced1bf-bundle","type":"transaction","entry":[{"resource":{"resourceType":"Bundle","id":"61095b0998086b53805591a5","type":"collection","entry":[{"fullUrl":"https://madie.cms.gov/Patient/34a7b6cd-b70b-4983-8d12-d13862ced1bf","resource":{"resourceType":"Patient","id":"34a7b6cd-b70b-4983-8d12-d13862ced1bf","meta":{"profile":["http://hl7.org/fhir/us/qicore/StructureDefinition/qicore-patient"]},"extension":[{"url":"http://hl7.org/fhir/us/core/StructureDefinition/us-core-race","extension":[{"url":"ombCategory","valueCoding":{"system":"urn:oid:2.16.840.1.113883.6.238","code":"1002-5","display":"American Indian or Alaska Native","userSelected":true}},{"url":"text","valueString":"American Indian or Alaska Native"}]},{"url":"http://hl7.org/fhir/us/core/StructureDefinition/us-core-ethnicity","extension":[{"url":"ombCategory","valueCoding":{"system":"urn:oid:2.16.840.1.113883.6.238","code":"2135-2","display":"Hispanic or Latino","userSelected":true}},{"url":"text","valueString":"Hispanic or Latino"}]}],"identifier":[{"type":{"coding":[{"system":"http://terminology.hl7.org/CodeSystem/v2-0203","code":"MR"}]},"system":"https://bonnie-fhir.healthit.gov/","value":"61095b0998086b53805591a5"}],"active":true,"name":[{"use":"usual","family":"IPPass","given":["Age18Jan1"]}],"gender":"female","birthDate":"2020-01-01"}},{"fullUrl":"http://myGoodHealthcare.com/fhir/Observation/5c9a4252b84846291b7a7085","resource":{"resourceType":"Observation","id":"5c9a4252b84846291b7a7085","meta":{"profile":["http://hl7.org/fhir/us/qicore/StructureDefinition/qicore-observation"]},"status":"final","category":[{"coding":[{"system":"http://terminology.hl7.org/CodeSystem/observation-category","code":"exam","display":"Exam"}]}],"code":{"coding":[{"system":"http://snomed.info/sct","code":"419775003"}]},"subject":{"reference":"Patient/34a7b6cd-b70b-4983-8d12-d13862ced1bf"},"effectivePeriod":{"start":"2023-03-13T09:00:00+00:00","end":"2023-03-13T09:30:00+00:00"}}},{"fullUrl":"http://myGoodHealthcare.com/fhir/Procedure/5c9a4252b84846291b7a7084","resource":{"resourceType":"Procedure","id":"5c9a4252b84846291b7a7084","meta":{"profile":["http://hl7.org/fhir/us/qicore/StructureDefinition/qicore-procedure"]},"extension":[{"url":"http://hl7.org/fhir/us/qicore/StructureDefinition/qicore-recorded","valueDateTime":"2023-03-05T09:35:00-04:00"}],"status":"completed","code":{"coding":[{"system":"http://snomed.info/sct","code":"84149000"}]},"subject":{"reference":"Patient/34a7b6cd-b70b-4983-8d12-d13862ced1bf"},"performedPeriod":{"start":"2023-03-05T09:20:00-04:00","end":"2023-04-05T10:30:00-04:00"}}},{"fullUrl":"http://myGoodHealthcare.com/fhir/MedicationRequest/coverage/1","resource":{"resourceType":"Coverage","id":"1","meta":{"profile":["http://hl7.org/fhir/us/qicore/StructureDefinition/qicore-coverage"]},"status":"active","beneficiary":{"reference":"Patient/34a7b6cd-b70b-4983-8d12-d13862ced1bf"},"payor":[{"reference":"Organization/123456"}]}},{"fullUrl":"http://myGoodHealthcare.com/fhir//Organization/123456","resource":{"resourceType":"Organization","id":"123456","meta":{"profile":["http://hl7.org/fhir/us/qicore/StructureDefinition/qicore-organization"]},"identifier":[{"use":"temp","system":"urn:oid:2.16.840.1.113883.4.4","value":"21-3259825"}],"active":true,"type":[{"coding":[{"system":"http://terminology.hl7.org/CodeSystem/organization-type","code":"pay","display":"Payer"}]}],"name":"Blue Cross Blue Shield of Texas","telecom":[{"system":"phone","value":"(+1) 972-766-6900"}],"address":[{"use":"billing","type":"postal","line":["P.O. Box 660044"],"city":"Dallas","state":"TX","postalCode":"75266-0044","country":"USA"}]}},{"fullUrl":"http://myGoodHealthcare.com/fhir/MedicationRequest/Practitioner/123456","resource":{"resourceType":"Practitioner","id":"practitioner-123456","meta":{"profile":["http://hl7.org/fhir/us/qicore/StructureDefinition/qicore-practitioner"]},"identifier":[{"system":"http://hl7.org/fhir/sid/us-npi","value":"123456"}],"name":[{"family":"Evil","prefix":["Dr"]}]}},{"fullUrl":"https://madie.cms.gov/MeasureReport/64529e07beb771640fc4cc0a/34a7b6cd-b70b-4983-8d12-d13862ced1bf","resource":{"resourceType":"MeasureReport","id":"013e2641-f063-4b1f-9867-686452d66e4d","meta":{"profile":["http://hl7.org/fhir/us/cqfmeasures/StructureDefinition/test-case-cqfm"]},"contained":[{"resourceType":"Parameters","id":"AgeUnder18-parameters","parameter":[{"name":"subject","valueString":"34a7b6cd-b70b-4983-8d12-d13862ced1bf"}]}],"extension":[{"url":"http://hl7.org/fhir/us/cqfmeasures/StructureDefinition/cqfm-inputParameters","valueReference":{"reference":"#AgeUnder18-parameters"}},{"url":"http://hl7.org/fhir/us/cqfmeasures/StructureDefinition/cqfm-testCaseDescription","valueMarkdown":"Patient is less than 18 years of age"}],"modifierExtension":[{"url":"http://hl7.org/fhir/us/cqfmeasures/StructureDefinition/cqfm-isTestCase","valueBoolean":true}],"status":"complete","type":"individual","measure":"http://ecqi.healthit.gov/ecqms/Measure/Cataracts2040BCVAwithin90DaysFHIR","period":{"start":"2024-01-01","end":"2024-12-31"},"group":[{"population":[{"code":{"coding":[{"system":"http://terminology.hl7.org/CodeSystem/measure-population","code":"initial-population","display":"Initial Population"}]},"count":0},{"code":{"coding":[{"system":"http://terminology.hl7.org/CodeSystem/measure-population","code":"denominator","display":"Denominator"}]},"count":0},{"code":{"coding":[{"system":"http://terminology.hl7.org/CodeSystem/measure-population","code":"denominator-exclusion","display":"Denominator Exclusion"}]},"count":0},{"code":{"coding":[{"system":"http://terminology.hl7.org/CodeSystem/measure-population","code":"numerator","display":"Numerator"}]},"count":0}]}],"evaluatedResource":[{"reference":"https://madie.cms.gov/Patient/34a7b6cd-b70b-4983-8d12-d13862ced1bf"},{"reference":"http://myGoodHealthcare.com/fhir/Observation/5c9a4252b84846291b7a7085"},{"reference":"http://myGoodHealthcare.com/fhir/Procedure/5c9a4252b84846291b7a7084"},{"reference":"http://myGoodHealthcare.com/fhir/MedicationRequest/Coverage/1"},{"reference":"Organization/123456"},{"reference":"Practitioner/practitioner-123456"}]}}]},"request":{"method":"PUT","url":"Bundle/61095b0998086b53805591a5"}}]}