{
  "id": "NUMERPassMedAntithromboticStarteqEncIPDay0",
  "resourceType": "Bundle",
  "type": "collection",
  "entry": [
    {
      "fullUrl": "NUMERPassMedAntithromboticStarteqEncIPDay0",
      "resource": {
        "id": "NUMERPassMedAntithromboticStarteqEncIPDay0",
        "meta": {
          "profile": [
            "http://hl7.org/fhir/us/qicore/StructureDefinition/qicore-patient"
          ]
        },
        "resourceType": "Patient",
        "text": {
          "status": "generated",
          "div": "<div xmlns=\"http://www.w3.org/1999/xhtml\"><div class=\"hapiHeaderText\">MedAntithromboticStart_eq0dayDuringEncIP <b>NUMERPASS </b></div><table class=\"hapiPropertyTable\"><tbody><tr><td>Identifier</td><td>6aa79e9cebbde8275335fd99b030f3d5</td></tr><tr><td>Date of birth</td><td><span>26 September 1975</span></td></tr></tbody></table></div>"
        },
        "extension": [
          {
            "extension": [
              {
                "url": "ombCategory",
                "valueCoding": {
                  "system": "urn:oid:2.16.840.1.113883.6.238",
                  "code": "2054-5",
                  "display": "Black or African American",
                  "userSelected": true
                }
              },
              {
                "url": "text",
                "valueString": "Black or African American"
              }
            ],
            "url": "http://hl7.org/fhir/us/core/StructureDefinition/us-core-race"
          },
          {
            "extension": [
              {
                "url": "ombCategory",
                "valueCoding": {
                  "system": "urn:oid:2.16.840.1.113883.6.238",
                  "code": "2186-5",
                  "display": "Not Hispanic or Latino",
                  "userSelected": true
                }
              },
              {
                "url": "text",
                "valueString": "Not Hispanic or Latino"
              }
            ],
            "url": "http://hl7.org/fhir/us/core/StructureDefinition/us-core-ethnicity"
          }
        ],
        "identifier": [
          {
            "type": {
              "coding": [
                {
                  "system": "http://terminology.hl7.org/CodeSystem/v2-0203",
                  "code": "MR"
                }
              ]
            },
            "system": "https://bonnie-fhir.healthit.gov/",
            "value": "NUMERPassMedAntithromboticStarteqEncIPDay0"
          }
        ],
        "active": true,
        "name": [
          {
            "use": "usual",
            "family": "NUMERPass",
            "given": [
              "MedAntithromboticStart_eq0dayDuringEncIP "
            ]
          }
        ],
        "gender": "female",
        "birthDate": "1975-09-26"
      }
    },
    {
      "fullUrl": "5c954892b848462de0ae61bc",
      "resource": {
        "id": "5c954892b848462de0ae61bc",
        "resourceType": "Encounter",
        "meta": {
          "profile": [
            "http://hl7.org/fhir/us/qicore/StructureDefinition/qicore-encounter"
          ]
        },        
        "status": "finished",
        "class": {
        	"system": "http://terminology.hl7.org/CodeSystem/v3-ActCode",
        	"code": "IMP",
        	"display": "inpatient encounter"
        },
        "type": [
          {
            "coding": [
              {
                "system": "http://snomed.info/sct",
                "code": "32485007"
              }
            ]
          }
        ],
        "subject": {
          "reference": "Patient/NUMERPassMedAntithromboticStarteqEncIPDay0"
        },
        "period": {
          "start": "2022-10-10T09:00:00+00:00",
          "end": "2022-10-12T11:15:00+00:00"
        },
        "length": {
          "value": 2.0,
          "unit": "days"
        },
        "diagnosis": [
          {
            "condition": {
              "reference": "Condition/ischemic-stroke-7d63"
            },
            "use": {
              "coding": [
                {
                  "system": "http://snomed.info/sct",
                  "code": "111297002",
                  "display": "Ischemic Stroke"
                }
              ]
            },
            "rank": 1
          }
        ]
      }
    },
    {
      "fullUrl": "5c954892b848462de0ae61be",
      "resource": {
        "id": "5c954892b848462de0ae61be",
        "resourceType": "MedicationAdministration",
        "meta" : {
          "profile" : [
            "http://hl7.org/fhir/us/qicore/StructureDefinition/qicore-medicationadministration"
          ]
        },        
        "status": "completed",
        "medicationCodeableConcept": {
          "coding": [
            {
              "system": "http://www.nlm.nih.gov/research/umls/rxnorm",
              "code": "1037045"
            }
          ]
        },
        "subject": {
          "reference": "Patient/NUMERPassMedAntithromboticStarteqEncIPDay0"
        },
        "effectivePeriod": {
          "start": "2022-10-11T11:00:00+00:00"
        }
      }
    },
    {
      "fullUrl": "5e20a3671c76ba6c5896ebbc",
      "resource": {
        "id": "5e20a3671c76ba6c5896ebbc",
        "resourceType": "Coverage",
     		"status": "active",
    		"payor": [{
        		"reference": "Patient/NUMERPassMedAntithromboticStarteqEncIPDay0"
        }],
        "beneficiary": {
          "reference": "Patient/NUMERPassMedAntithromboticStarteqEncIPDay0"
        },
        "period": {
          "start": "1975-09-26T08:00:00+00:00"
        }
      }
    },
    {
      "fullUrl": "ischemic-stroke-7d63",
      "resource": {
        "id": "ischemic-stroke-7d63",
        "resourceType": "Condition",
    	  "meta": {
          "profile": [
            "http://hl7.org/fhir/us/qicore/StructureDefinition/qicore-condition"
          ]
          },
          "verificationStatus": {
            "coding": [
              {
              "system": "http://terminology.hl7.org/CodeSystem/condition-ver-status",
              "code": "confirmed",
              "display": "Confirmed"
              }
            ]
            },          
          "code": {
          "coding": [
            {
              "system": "http://snomed.info/sct",
              "version": "2020-09",
              "code": "111297002",
              "display": "Nonparalytic stroke (disorder)",
              "userSelected": true
            }
          ]
        },
    	  "subject": {
          "reference": "Patient/NUMERPassMedAntithromboticStarteqEncIPDay0"
    	  },
    	  "recordedDate": "2022-08-16T08:00:00.000+00:00"
      }
    }
  ]
}