{
  "resourceType": "Bundle",
  "id": "63ec09a7ccb3770120feac15",
  "type": "collection",
  "entry": [ {
    "fullUrl": "https://madie.cms.gov/Patient/51a09eb7-d8df-4cda-9563-4ba302a62686",
    "resource": {
      "resourceType": "Patient",
      "id": "51a09eb7-d8df-4cda-9563-4ba302a62686",
      "meta": {
        "profile": [ "http://hl7.org/fhir/us/qicore/StructureDefinition/qicore-patient" ]
      },
      "text": {
        "status": "generated",
        "div": "<div xmlns=\"http://www.w3.org/1999/xhtml\"><div class=\"hapiHeaderText\">LTE24before <b>WEIGHTANDOXY </b></div><table class=\"hapiPropertyTable\"><tbody><tr><td>Identifier</td><td>d69abbc179641b9cd673a4a9152886e8e63bc2e0e7b27e1a51505ef2a774679e</td></tr><tr><td>Date of birth</td><td><span>15 June 1947</span></td></tr></tbody></table></div>"
      },
      "extension": [ {
        "url": "http://hl7.org/fhir/us/core/StructureDefinition/us-core-race",
        "extension": [ {
          "url": "ombCategory",
          "valueCoding": {
            "system": "urn:oid:2.16.840.1.113883.6.238",
            "code": "1002-5",
            "display": "American Indian or Alaska Native",
            "userSelected": true
          }
        }, {
          "url": "text",
          "valueString": "American Indian or Alaska Native"
        } ]
      }, {
        "url": "http://hl7.org/fhir/us/core/StructureDefinition/us-core-ethnicity",
        "extension": [ {
          "url": "ombCategory",
          "valueCoding": {
            "system": "urn:oid:2.16.840.1.113883.6.238",
            "code": "2186-5",
            "display": "Not Hispanic or Latino",
            "userSelected": true
          }
        }, {
          "url": "text",
          "valueString": "Not Hispanic or Latino"
        } ]
      } ],
      "identifier": [ {
        "type": {
          "coding": [ {
            "system": "http://terminology.hl7.org/CodeSystem/v2-0203",
            "code": "MR"
          } ]
        },
        "system": "https://bonnie-fhir.healthit.gov/",
        "value": "63ec09a7ccb3770120feac15"
      } ],
      "active": true,
      "name": [ {
        "use": "usual",
        "family": "WeightAndOxy",
        "given": [ "LTE24before" ]
      } ],
      "gender": "male",
      "birthDate": "1947-06-15"
    }
  }, {
    "fullUrl": "5dc2cd7fd47b2c00005dfd6d",
    "resource": {
      "resourceType": "Encounter",
      "id": "5dc2cd7fd47b2c00005dfd6d",
      "meta": {
        "profile": [ "http://hl7.org/fhir/us/qicore/StructureDefinition/qicore-encounter" ]
      },
      "status": "finished",
      "class": {
        "system": "http://terminology.hl7.org/CodeSystem/v3-ActCode",
        "code": "IMP",
        "display": "inpatient encounter",
        "userSelected": true
      },
      "type": [ {
        "coding": [ {
          "system": "http://snomed.info/sct",
          "code": "183452005"
        } ]
      } ],
      "subject": {
        "reference": "Patient/51a09eb7-d8df-4cda-9563-4ba302a62686"
      },
      "period": {
        "start": "2024-08-21T08:00:00.000+00:00",
        "end": "2024-08-22T08:15:00.000+00:00"
      }
    }
  }, {
    "fullUrl": "5f98f5eba916680000fb7080",
    "resource": {
      "resourceType": "Coverage",
      "id": "5f98f5eba916680000fb7080",
      "meta": {
        "profile": [ "http://hl7.org/fhir/us/qicore/StructureDefinition/qicore-coverage" ]
      },
      "status": "active",
      "type": {
        "coding": [ {
          "system": "https://nahdo.org/sopt",
          "version": "1.0.1",
          "code": "1",
          "display": "Medicare payer",
          "userSelected": true
        } ]
      },
      "beneficiary": {
        "reference": "Patient/51a09eb7-d8df-4cda-9563-4ba302a62686"
      },
      "payor": [ {
        "reference": "Organization/123456"
      } ]
    }
  }, {
    "fullUrl": "5dc2dfd4831f330000d744f6",
    "resource": {
      "resourceType": "Observation",
      "id": "5dc2dfd4831f330000d744f6",
      "meta": {
        "profile": [ "http://hl7.org/fhir/us/qicore/StructureDefinition/qicore-observation" ]
      },
      "status": "amended",
      "category": [ {
        "coding": [ {
          "system": "http://terminology.hl7.org/CodeSystem/observation-category",
          "code": "laboratory",
          "display": "laboratory",
          "userSelected": true
        } ]
      } ],
      "code": {
        "coding": [ {
          "system": "http://loinc.org",
          "code": "29463-7"
        } ]
      },
      "subject": {
        "reference": "Patient/51a09eb7-d8df-4cda-9563-4ba302a62686"
      },
      "effectiveDateTime": "2024-08-21T07:00:00.000+00:00",
      "valueQuantity": {
        "value": 150.0
      }
    }
  }, {
    "fullUrl": "5dc2e016831f330000d7453e",
    "resource": {
      "resourceType": "Observation",
      "id": "5dc2e016831f330000d7453e",
      "meta": {
        "profile": [ "http://hl7.org/fhir/us/qicore/StructureDefinition/qicore-observation" ]
      },
      "status": "final",
      "category": [ {
        "coding": [ {
          "system": "http://terminology.hl7.org/CodeSystem/observation-category",
          "code": "laboratory",
          "display": "laboratory",
          "userSelected": true
        } ]
      } ],
      "code": {
        "coding": [ {
          "system": "http://loinc.org",
          "code": "59408-5"
        } ]
      },
      "subject": {
        "reference": "Patient/51a09eb7-d8df-4cda-9563-4ba302a62686"
      },
      "effectiveDateTime": "2024-08-21T06:00:00.000+00:00",
      "valueQuantity": {
        "value": 80.0
      }
    }
  }, {
    "fullUrl": "http://Organization/123456",
    "resource": {
      "resourceType": "Organization",
      "id": "123456",
      "meta": {
        "profile": [ "http://hl7.org/fhir/us/qicore/StructureDefinition/qicore-organization" ]
      },
      "identifier": [ {
        "use": "temp",
        "system": "urn:oid:2.16.840.1.113883.4.4",
        "value": "21-3259825"
      } ],
      "active": true,
      "type": [ {
        "coding": [ {
          "system": "http://terminology.hl7.org/CodeSystem/organization-type",
          "code": "pay",
          "display": "Payer"
        } ]
      } ],
      "name": "Blue Cross Blue Shield of Texas",
      "telecom": [ {
        "system": "phone",
        "value": "(+1) 972-766-6900"
      } ],
      "address": [ {
        "use": "billing",
        "type": "postal",
        "line": [ "P.O. Box 660044" ],
        "city": "Dallas",
        "state": "TX",
        "postalCode": "75266-0044",
        "country": "USA"
      } ]
    }
  }, {
    "fullUrl": "http://Practitioner/123456",
    "resource": {
      "resourceType": "Practitioner",
      "id": "practitioner-123456",
      "meta": {
        "profile": [ "http://hl7.org/fhir/us/qicore/StructureDefinition/qicore-practitioner" ]
      },
      "identifier": [ {
        "system": "http://hl7.org/fhir/sid/us-npi",
        "value": "123456"
      } ],
      "name": [ {
        "family": "Evil",
        "prefix": [ "Dr" ]
      } ]
    }
  }, {
    "fullUrl": "https://madie.cms.gov/MeasureReport/638501714ba3d47c885c02ad/51a09eb7-d8df-4cda-9563-4ba302a62686",
    "resource": {
      "resourceType": "MeasureReport",
      "id": "d18b7510-2638-467d-9859-f6307144ddb1",
      "meta": {
        "profile": [ "http://hl7.org/fhir/us/cqfmeasures/StructureDefinition/test-case-cqfm" ]
      },
      "contained": [ {
        "resourceType": "Parameters",
        "id": "LTE24before-parameters",
        "parameter": [ {
          "name": "subject",
          "valueString": "51a09eb7-d8df-4cda-9563-4ba302a62686"
        } ]
      } ],
      "extension": [ {
        "url": "http://hl7.org/fhir/us/cqfmeasures/StructureDefinition/cqfm-inputParameters",
        "valueReference": {
          "reference": "#LTE24before-parameters"
        }
      }, {
        "url": "http://hl7.org/fhir/us/cqfmeasures/StructureDefinition/cqfm-testCaseDescription",
        "valueMarkdown": "Patient has weight physical exam and oxygen saturation lab test.\nBoth exam and lab test occurred within the encounter timing interval.\nBoth results included in measure results. "
      } ],
      "modifierExtension": [ {
        "url": "http://hl7.org/fhir/us/cqfmeasures/StructureDefinition/cqfm-isTestCase",
        "valueBoolean": true
      } ],
      "status": "complete",
      "type": "individual",
      "measure": "http://ecqi.healthit.gov/ecqms/Measure/HybridHospitalWideReadmissionFHIR",
      "period": {
        "start": "2024-07-01",
        "end": "2025-06-30"
      },
      "group": [ {
        "population": [ {
          "code": {
            "coding": [ {
              "system": "http://terminology.hl7.org/CodeSystem/measure-population",
              "code": "initial-population",
              "display": "Initial Population"
            } ]
          },
          "count": 1
        } ]
      } ],
      "evaluatedResource": [ {
        "reference": "https://madie.cms.gov/Patient/51a09eb7-d8df-4cda-9563-4ba302a62686"
      }, {
        "reference": "Encounter/5dc2cd7fd47b2c00005dfd6d"
      }, {
        "reference": "Coverage/5f98f5eba916680000fb7080"
      }, {
        "reference": "Observation/5dc2dfd4831f330000d744f6"
      }, {
        "reference": "Observation/5dc2e016831f330000d7453e"
      }, {
        "reference": "Organization/123456"
      }, {
        "reference": "Practitioner/practitioner-123456"
      } ]
    }
  } ]
}