{
  "resourceType": "Bundle",
  "id": "63ec09a5ccb3770120feaa17",
  "type": "collection",
  "entry": [ {
    "fullUrl": "https://madie.cms.gov/Patient/942960c8-37da-492d-85c8-0271d7b655b2",
    "resource": {
      "resourceType": "Patient",
      "id": "942960c8-37da-492d-85c8-0271d7b655b2",
      "meta": {
        "profile": [ "http://hl7.org/fhir/us/qicore/StructureDefinition/qicore-patient" ]
      },
      "text": {
        "status": "generated",
        "div": "<div xmlns=\"http://www.w3.org/1999/xhtml\"><div class=\"hapiHeaderText\">GT24beforeButLT24after <b>WEIGHTPASS </b></div><table class=\"hapiPropertyTable\"><tbody><tr><td>Identifier</td><td>af4f1b60304c2dfd571a63f06371ced6a910caaabd39580cdcebe7683e429596</td></tr><tr><td>Date of birth</td><td><span>21 June 1947</span></td></tr></tbody></table></div>"
      },
      "extension": [ {
        "url": "http://hl7.org/fhir/us/core/StructureDefinition/us-core-race",
        "extension": [ {
          "url": "ombCategory",
          "valueCoding": {
            "system": "urn:oid:2.16.840.1.113883.6.238",
            "code": "1002-5",
            "display": "American Indian or Alaska Native",
            "userSelected": true
          }
        }, {
          "url": "text",
          "valueString": "American Indian or Alaska Native"
        } ]
      }, {
        "url": "http://hl7.org/fhir/us/core/StructureDefinition/us-core-ethnicity",
        "extension": [ {
          "url": "ombCategory",
          "valueCoding": {
            "system": "urn:oid:2.16.840.1.113883.6.238",
            "code": "2186-5",
            "display": "Not Hispanic or Latino",
            "userSelected": true
          }
        }, {
          "url": "text",
          "valueString": "Not Hispanic or Latino"
        } ]
      } ],
      "identifier": [ {
        "type": {
          "coding": [ {
            "system": "http://terminology.hl7.org/CodeSystem/v2-0203",
            "code": "MR"
          } ]
        },
        "system": "https://bonnie-fhir.healthit.gov/",
        "value": "63ec09a5ccb3770120feaa17"
      } ],
      "active": true,
      "name": [ {
        "use": "usual",
        "family": "WeightPass",
        "given": [ "GT24beforeButLT24after" ]
      } ],
      "gender": "male",
      "birthDate": "1947-06-21"
    }
  }, {
    "fullUrl": "5dc2dc91831f330000d7437b",
    "resource": {
      "resourceType": "Encounter",
      "id": "5dc2dc91831f330000d7437b",
      "meta": {
        "profile": [ "http://hl7.org/fhir/us/qicore/StructureDefinition/qicore-encounter" ]
      },
      "status": "finished",
      "class": {
        "system": "http://terminology.hl7.org/CodeSystem/v3-ActCode",
        "code": "IMP",
        "display": "inpatient encounter",
        "userSelected": true
      },
      "type": [ {
        "coding": [ {
          "system": "http://snomed.info/sct",
          "code": "183452005"
        } ]
      } ],
      "subject": {
        "reference": "Patient/942960c8-37da-492d-85c8-0271d7b655b2"
      },
      "period": {
        "start": "2024-07-21T08:00:00.000+00:00",
        "end": "2024-08-18T08:15:00.000+00:00"
      }
    }
  }, {
    "fullUrl": "5f98f60ba916680000fb70da",
    "resource": {
      "resourceType": "Coverage",
      "id": "5f98f60ba916680000fb70da",
      "meta": {
        "profile": [ "http://hl7.org/fhir/us/qicore/StructureDefinition/qicore-coverage" ]
      },
      "status": "active",
      "type": {
        "coding": [ {
          "system": "https://nahdo.org/sopt",
          "version": "1.0.1",
          "code": "1",
          "display": "Medicare payer",
          "userSelected": true
        } ]
      },
      "beneficiary": {
        "reference": "Patient/942960c8-37da-492d-85c8-0271d7b655b2"
      },
      "payor": [ {
        "reference": "Organization/123456"
      } ]
    }
  }, {
    "fullUrl": "5b562b10b84846558c53c18f",
    "resource": {
      "resourceType": "Observation",
      "id": "5b562b10b84846558c53c18f",
      "meta": {
        "profile": [ "http://hl7.org/fhir/us/qicore/StructureDefinition/qicore-observation" ]
      },
      "status": "final",
      "category": [ {
        "coding": [ {
          "system": "http://terminology.hl7.org/CodeSystem/observation-category",
          "code": "laboratory",
          "display": "laboratory",
          "userSelected": true
        } ]
      } ],
      "code": {
        "coding": [ {
          "system": "http://loinc.org",
          "code": "29463-7"
        } ]
      },
      "subject": {
        "reference": "Patient/942960c8-37da-492d-85c8-0271d7b655b2"
      },
      "effectiveDateTime": "2024-07-20T07:59:00.000+00:00",
      "valueQuantity": {
        "value": 170.0
      }
    }
  }, {
    "fullUrl": "5b562b10b84846558c53c191",
    "resource": {
      "resourceType": "Observation",
      "id": "5b562b10b84846558c53c191",
      "meta": {
        "profile": [ "http://hl7.org/fhir/us/qicore/StructureDefinition/qicore-observation" ]
      },
      "status": "final",
      "category": [ {
        "coding": [ {
          "system": "http://terminology.hl7.org/CodeSystem/observation-category",
          "code": "laboratory",
          "display": "laboratory",
          "userSelected": true
        } ]
      } ],
      "code": {
        "coding": [ {
          "system": "http://loinc.org",
          "code": "29463-7"
        } ]
      },
      "subject": {
        "reference": "Patient/942960c8-37da-492d-85c8-0271d7b655b2"
      },
      "effectiveDateTime": "2024-07-22T06:00:00.000+00:00",
      "valueQuantity": {
        "value": 165.0
      }
    }
  }, {
    "fullUrl": "http://Organization/123456",
    "resource": {
      "resourceType": "Organization",
      "id": "123456",
      "meta": {
        "profile": [ "http://hl7.org/fhir/us/qicore/StructureDefinition/qicore-organization" ]
      },
      "identifier": [ {
        "use": "temp",
        "system": "urn:oid:2.16.840.1.113883.4.4",
        "value": "21-3259825"
      } ],
      "active": true,
      "type": [ {
        "coding": [ {
          "system": "http://terminology.hl7.org/CodeSystem/organization-type",
          "code": "pay",
          "display": "Payer"
        } ]
      } ],
      "name": "Blue Cross Blue Shield of Texas",
      "telecom": [ {
        "system": "phone",
        "value": "(+1) 972-766-6900"
      } ],
      "address": [ {
        "use": "billing",
        "type": "postal",
        "line": [ "P.O. Box 660044" ],
        "city": "Dallas",
        "state": "TX",
        "postalCode": "75266-0044",
        "country": "USA"
      } ]
    }
  }, {
    "fullUrl": "http://Practitioner/123456",
    "resource": {
      "resourceType": "Practitioner",
      "id": "practitioner-123456",
      "meta": {
        "profile": [ "http://hl7.org/fhir/us/qicore/StructureDefinition/qicore-practitioner" ]
      },
      "identifier": [ {
        "system": "http://hl7.org/fhir/sid/us-npi",
        "value": "123456"
      } ],
      "name": [ {
        "family": "Evil",
        "prefix": [ "Dr" ]
      } ]
    }
  }, {
    "fullUrl": "https://madie.cms.gov/MeasureReport/638501714ba3d47c885c02ad/942960c8-37da-492d-85c8-0271d7b655b2",
    "resource": {
      "resourceType": "MeasureReport",
      "id": "380258e6-555b-4c59-9c26-2d327900d78c",
      "meta": {
        "profile": [ "http://hl7.org/fhir/us/cqfmeasures/StructureDefinition/test-case-cqfm" ]
      },
      "contained": [ {
        "resourceType": "Parameters",
        "id": "GT24beforeButLT24after-parameters",
        "parameter": [ {
          "name": "subject",
          "valueString": "942960c8-37da-492d-85c8-0271d7b655b2"
        } ]
      } ],
      "extension": [ {
        "url": "http://hl7.org/fhir/us/cqfmeasures/StructureDefinition/cqfm-inputParameters",
        "valueReference": {
          "reference": "#GT24beforeButLT24after-parameters"
        }
      }, {
        "url": "http://hl7.org/fhir/us/cqfmeasures/StructureDefinition/cqfm-testCaseDescription",
        "valueMarkdown": "Patient has 2 weight exams.\nOnly one exam occurred within encounter timing interval. (exactly 24 hours before encounter)\nResult of that exam included in measure results. "
      } ],
      "modifierExtension": [ {
        "url": "http://hl7.org/fhir/us/cqfmeasures/StructureDefinition/cqfm-isTestCase",
        "valueBoolean": true
      } ],
      "status": "complete",
      "type": "individual",
      "measure": "http://ecqi.healthit.gov/ecqms/Measure/HybridHospitalWideReadmissionFHIR",
      "period": {
        "start": "2024-07-01",
        "end": "2025-06-30"
      },
      "group": [ {
        "population": [ {
          "code": {
            "coding": [ {
              "system": "http://terminology.hl7.org/CodeSystem/measure-population",
              "code": "initial-population",
              "display": "Initial Population"
            } ]
          },
          "count": 1
        } ]
      } ],
      "evaluatedResource": [ {
        "reference": "https://madie.cms.gov/Patient/942960c8-37da-492d-85c8-0271d7b655b2"
      }, {
        "reference": "Encounter/5dc2dc91831f330000d7437b"
      }, {
        "reference": "Coverage/5f98f60ba916680000fb70da"
      }, {
        "reference": "Observation/5b562b10b84846558c53c18f"
      }, {
        "reference": "Observation/5b562b10b84846558c53c191"
      }, {
        "reference": "Organization/123456"
      }, {
        "reference": "Practitioner/practitioner-123456"
      } ]
    }
  } ]
}