{
  "resourceType": "Bundle",
  "id": "63ec09a0ccb3770120fea511",
  "type": "collection",
  "entry": [ {
    "fullUrl": "https://madie.cms.gov/Patient/536735fe-a5b4-4e97-9f1c-b42d9a855737",
    "resource": {
      "resourceType": "Patient",
      "id": "536735fe-a5b4-4e97-9f1c-b42d9a855737",
      "meta": {
        "profile": [ "http://hl7.org/fhir/us/qicore/StructureDefinition/qicore-patient" ]
      },
      "text": {
        "status": "generated",
        "div": "<div xmlns=\"http://www.w3.org/1999/xhtml\"><div class=\"hapiHeaderText\">LT2after_relevantPeriodjuststart <b>TEMPPASS </b></div><table class=\"hapiPropertyTable\"><tbody><tr><td>Identifier</td><td>6a72446a4b6a579821503141ae0444a7a9a2164f17799ef9a8b5f2715cf00c2a</td></tr><tr><td>Date of birth</td><td><span>15 June 1947</span></td></tr></tbody></table></div>"
      },
      "extension": [ {
        "url": "http://hl7.org/fhir/us/core/StructureDefinition/us-core-race",
        "extension": [ {
          "url": "ombCategory",
          "valueCoding": {
            "system": "urn:oid:2.16.840.1.113883.6.238",
            "code": "1002-5",
            "display": "American Indian or Alaska Native",
            "userSelected": true
          }
        }, {
          "url": "text",
          "valueString": "American Indian or Alaska Native"
        } ]
      }, {
        "url": "http://hl7.org/fhir/us/core/StructureDefinition/us-core-ethnicity",
        "extension": [ {
          "url": "ombCategory",
          "valueCoding": {
            "system": "urn:oid:2.16.840.1.113883.6.238",
            "code": "2186-5",
            "display": "Not Hispanic or Latino",
            "userSelected": true
          }
        }, {
          "url": "text",
          "valueString": "Not Hispanic or Latino"
        } ]
      } ],
      "identifier": [ {
        "type": {
          "coding": [ {
            "system": "http://terminology.hl7.org/CodeSystem/v2-0203",
            "code": "MR"
          } ]
        },
        "system": "https://bonnie-fhir.healthit.gov/",
        "value": "63ec09a0ccb3770120fea511"
      } ],
      "active": true,
      "name": [ {
        "use": "usual",
        "family": "TempPass",
        "given": [ "LT2afterrelevantPeriodjuststart" ]
      } ],
      "gender": "male",
      "birthDate": "1947-06-15"
    }
  }, {
    "fullUrl": "5dc2dcfe831f330000d743f0",
    "resource": {
      "resourceType": "Encounter",
      "id": "5dc2dcfe831f330000d743f0",
      "meta": {
        "profile": [ "http://hl7.org/fhir/us/qicore/StructureDefinition/qicore-encounter" ]
      },
      "status": "finished",
      "class": {
        "system": "http://terminology.hl7.org/CodeSystem/v3-ActCode",
        "code": "OBSENC",
        "display": "observation encounter",
        "userSelected": true
      },
      "type": [ {
        "coding": [ {
          "system": "http://snomed.info/sct",
          "code": "183452005"
        } ]
      } ],
      "subject": {
        "reference": "Patient/536735fe-a5b4-4e97-9f1c-b42d9a855737"
      },
      "period": {
        "start": "2024-08-21T08:00:00.000+00:00",
        "end": "2024-08-22T08:15:00.000+00:00"
      }
    }
  }, {
    "fullUrl": "5f98f644a916680000fb7132",
    "resource": {
      "resourceType": "Coverage",
      "id": "5f98f644a916680000fb7132",
      "meta": {
        "profile": [ "http://hl7.org/fhir/us/qicore/StructureDefinition/qicore-coverage" ]
      },
      "status": "active",
      "type": {
        "coding": [ {
          "system": "https://nahdo.org/sopt",
          "version": "1.0.1",
          "code": "1",
          "display": "Medicare payer",
          "userSelected": true
        } ]
      },
      "beneficiary": {
        "reference": "Patient/536735fe-a5b4-4e97-9f1c-b42d9a855737"
      },
      "payor": [ {
        "reference": "Organization/123456"
      } ]
    }
  }, {
    "fullUrl": "5b7c553fb84846299c81a52b",
    "resource": {
      "resourceType": "Observation",
      "id": "5b7c553fb84846299c81a52b",
      "meta": {
        "profile": [ "http://hl7.org/fhir/us/qicore/StructureDefinition/qicore-observation" ]
      },
      "status": "final",
      "category": [ {
        "coding": [ {
          "system": "http://terminology.hl7.org/CodeSystem/observation-category",
          "code": "laboratory",
          "display": "laboratory",
          "userSelected": true
        } ]
      } ],
      "code": {
        "coding": [ {
          "system": "http://loinc.org",
          "code": "8310-5"
        } ]
      },
      "subject": {
        "reference": "Patient/536735fe-a5b4-4e97-9f1c-b42d9a855737"
      },
      "effectiveDateTime": "2024-08-21T10:00:00.000+00:00",
      "valueQuantity": {
        "value": 98.6
      }
    }
  }, {
    "fullUrl": "http://Organization/123456",
    "resource": {
      "resourceType": "Organization",
      "id": "123456",
      "meta": {
        "profile": [ "http://hl7.org/fhir/us/qicore/StructureDefinition/qicore-organization" ]
      },
      "identifier": [ {
        "use": "temp",
        "system": "urn:oid:2.16.840.1.113883.4.4",
        "value": "21-3259825"
      } ],
      "active": true,
      "type": [ {
        "coding": [ {
          "system": "http://terminology.hl7.org/CodeSystem/organization-type",
          "code": "pay",
          "display": "Payer"
        } ]
      } ],
      "name": "Blue Cross Blue Shield of Texas",
      "telecom": [ {
        "system": "phone",
        "value": "(+1) 972-766-6900"
      } ],
      "address": [ {
        "use": "billing",
        "type": "postal",
        "line": [ "P.O. Box 660044" ],
        "city": "Dallas",
        "state": "TX",
        "postalCode": "75266-0044",
        "country": "USA"
      } ]
    }
  }, {
    "fullUrl": "http://Practitioner/123456",
    "resource": {
      "resourceType": "Practitioner",
      "id": "practitioner-123456",
      "meta": {
        "profile": [ "http://hl7.org/fhir/us/qicore/StructureDefinition/qicore-practitioner" ]
      },
      "identifier": [ {
        "system": "http://hl7.org/fhir/sid/us-npi",
        "value": "123456"
      } ],
      "name": [ {
        "family": "Evil",
        "prefix": [ "Dr" ]
      } ]
    }
  }, {
    "fullUrl": "https://madie.cms.gov/MeasureReport/638501714ba3d47c885c02ad/536735fe-a5b4-4e97-9f1c-b42d9a855737",
    "resource": {
      "resourceType": "MeasureReport",
      "id": "30aa0794-78fe-4de2-b2e3-60ff74217c5d",
      "meta": {
        "profile": [ "http://hl7.org/fhir/us/cqfmeasures/StructureDefinition/test-case-cqfm" ]
      },
      "contained": [ {
        "resourceType": "Parameters",
        "id": "LT2afterrelevantPeriodjuststart-parameters",
        "parameter": [ {
          "name": "subject",
          "valueString": "536735fe-a5b4-4e97-9f1c-b42d9a855737"
        } ]
      } ],
      "extension": [ {
        "url": "http://hl7.org/fhir/us/cqfmeasures/StructureDefinition/cqfm-inputParameters",
        "valueReference": {
          "reference": "#LT2afterrelevantPeriodjuststart-parameters"
        }
      }, {
        "url": "http://hl7.org/fhir/us/cqfmeasures/StructureDefinition/cqfm-testCaseDescription",
        "valueMarkdown": "Patient has temperature exam.\nExam occurred within encounter timing interval (exactly 2 hours after start of encounter)\nExam results included in measure results. "
      } ],
      "modifierExtension": [ {
        "url": "http://hl7.org/fhir/us/cqfmeasures/StructureDefinition/cqfm-isTestCase",
        "valueBoolean": true
      } ],
      "status": "complete",
      "type": "individual",
      "measure": "http://ecqi.healthit.gov/ecqms/Measure/HybridHospitalWideReadmissionFHIR",
      "period": {
        "start": "2024-07-01",
        "end": "2025-06-30"
      },
      "group": [ {
        "population": [ {
          "code": {
            "coding": [ {
              "system": "http://terminology.hl7.org/CodeSystem/measure-population",
              "code": "initial-population",
              "display": "Initial Population"
            } ]
          },
          "count": 1
        } ]
      } ],
      "evaluatedResource": [ {
        "reference": "https://madie.cms.gov/Patient/536735fe-a5b4-4e97-9f1c-b42d9a855737"
      }, {
        "reference": "Encounter/5dc2dcfe831f330000d743f0"
      }, {
        "reference": "Coverage/5f98f644a916680000fb7132"
      }, {
        "reference": "Observation/5b7c553fb84846299c81a52b"
      }, {
        "reference": "Organization/123456"
      }, {
        "reference": "Practitioner/practitioner-123456"
      } ]
    }
  } ]
}