{"resourceType":"Bundle","id":"tests-8dc68507-cf59-4cd7-b16c-563935746a03-bundle","type":"transaction","entry":[{"resource":{"resourceType":"Bundle","id":"63ec09a6ccb3770120feab67","type":"collection","entry":[{"fullUrl":"https://madie.cms.gov/Patient/8dc68507-cf59-4cd7-b16c-563935746a03","resource":{"resourceType":"Patient","id":"8dc68507-cf59-4cd7-b16c-563935746a03","meta":{"profile":["http://hl7.org/fhir/us/qicore/StructureDefinition/qicore-patient"]},"text":{"status":"generated","div":"<div xmlns=\"http://www.w3.org/1999/xhtml\"><div class=\"hapiHeaderText\">Enc365Days <b>IPFAIL </b></div><table class=\"hapiPropertyTable\"><tbody><tr><td>Identifier</td><td>b2ac2068f7257396cf52f5da8f4745c8dfa740356675ebf48da1df05c252eae1</td></tr><tr><td>Date of birth</td><td><span>22 June 1945</span></td></tr></tbody></table></div>"},"extension":[{"url":"http://hl7.org/fhir/us/core/StructureDefinition/us-core-race","extension":[{"url":"ombCategory","valueCoding":{"system":"urn:oid:2.16.840.1.113883.6.238","code":"1002-5","display":"American Indian or Alaska Native","userSelected":true}},{"url":"text","valueString":"American Indian or Alaska Native"}]},{"url":"http://hl7.org/fhir/us/core/StructureDefinition/us-core-ethnicity","extension":[{"url":"ombCategory","valueCoding":{"system":"urn:oid:2.16.840.1.113883.6.238","code":"2186-5","display":"Not Hispanic or Latino","userSelected":true}},{"url":"text","valueString":"Not Hispanic or Latino"}]}],"identifier":[{"type":{"coding":[{"system":"http://terminology.hl7.org/CodeSystem/v2-0203","code":"MR"}]},"system":"https://bonnie-fhir.healthit.gov/","value":"63ec09a6ccb3770120feab67"}],"active":true,"name":[{"use":"usual","family":"IPFail","given":["Enc365Days"]}],"gender":"male","birthDate":"1945-06-22"}},{"fullUrl":"5e31cac2d8fcc20000efaecc","resource":{"resourceType":"Encounter","id":"5e31cac2d8fcc20000efaecc","meta":{"profile":["http://hl7.org/fhir/us/qicore/StructureDefinition/qicore-encounter"]},"status":"finished","class":{"system":"http://terminology.hl7.org/CodeSystem/v3-ActCode","code":"OBSENC","display":"observation encounter","userSelected":true},"type":[{"coding":[{"system":"http://snomed.info/sct","code":"183452005"}]}],"subject":{"reference":"Patient/8dc68507-cf59-4cd7-b16c-563935746a03"},"period":{"start":"2024-08-30T08:00:00.000+00:00","end":"2025-07-31T12:15:00.000+00:00"},"length":{"value":366.0,"unit":"days"}}},{"fullUrl":"5f9973fb4a447800002a8363","resource":{"resourceType":"Coverage","id":"5f9973fb4a447800002a8363","meta":{"profile":["http://hl7.org/fhir/us/qicore/StructureDefinition/qicore-coverage"]},"status":"active","type":{"coding":[{"system":"https://nahdo.org/sopt","version":"1.0.1","code":"1","display":"Medicare payer","userSelected":true}]},"beneficiary":{"reference":"Patient/8dc68507-cf59-4cd7-b16c-563935746a03"},"payor":[{"reference":"Organization/123456"}]}},{"fullUrl":"http://Organization/123456","resource":{"resourceType":"Organization","id":"123456","meta":{"profile":["http://hl7.org/fhir/us/qicore/StructureDefinition/qicore-organization"]},"identifier":[{"use":"temp","system":"urn:oid:2.16.840.1.113883.4.4","value":"21-3259825"}],"active":true,"type":[{"coding":[{"system":"http://terminology.hl7.org/CodeSystem/organization-type","code":"pay","display":"Payer"}]}],"name":"Blue Cross Blue Shield of Texas","telecom":[{"system":"phone","value":"(+1) 972-766-6900"}],"address":[{"use":"billing","type":"postal","line":["P.O. Box 660044"],"city":"Dallas","state":"TX","postalCode":"75266-0044","country":"USA"}]}},{"fullUrl":"http://Practitioner/123456","resource":{"resourceType":"Practitioner","id":"practitioner-123456","meta":{"profile":["http://hl7.org/fhir/us/qicore/StructureDefinition/qicore-practitioner"]},"identifier":[{"system":"http://hl7.org/fhir/sid/us-npi","value":"123456"}],"name":[{"family":"Evil","prefix":["Dr"]}]}},{"fullUrl":"https://madie.cms.gov/MeasureReport/638501714ba3d47c885c02ad/8dc68507-cf59-4cd7-b16c-563935746a03","resource":{"resourceType":"MeasureReport","id":"3e24f528-2abb-4caf-8884-463e88397cb6","meta":{"profile":["http://hl7.org/fhir/us/cqfmeasures/StructureDefinition/test-case-cqfm"]},"contained":[{"resourceType":"Parameters","id":"Enc365Days-parameters","parameter":[{"name":"subject","valueString":"8dc68507-cf59-4cd7-b16c-563935746a03"}]}],"extension":[{"url":"http://hl7.org/fhir/us/cqfmeasures/StructureDefinition/cqfm-inputParameters","valueReference":{"reference":"#Enc365Days-parameters"}},{"url":"http://hl7.org/fhir/us/cqfmeasures/StructureDefinition/cqfm-testCaseDescription","valueMarkdown":"Patient's length of stay is not less than 365 days. \nNot included in initial population. "}],"modifierExtension":[{"url":"http://hl7.org/fhir/us/cqfmeasures/StructureDefinition/cqfm-isTestCase","valueBoolean":true}],"status":"complete","type":"individual","measure":"http://ecqi.healthit.gov/ecqms/Measure/HybridHospitalWideReadmissionFHIR","period":{"start":"2024-07-01","end":"2025-06-30"},"group":[{"population":[{"code":{"coding":[{"system":"http://terminology.hl7.org/CodeSystem/measure-population","code":"initial-population","display":"Initial Population"}]},"count":0}]}],"evaluatedResource":[{"reference":"https://madie.cms.gov/Patient/8dc68507-cf59-4cd7-b16c-563935746a03"},{"reference":"Encounter/5e31cac2d8fcc20000efaecc"},{"reference":"Coverage/5f9973fb4a447800002a8363"},{"reference":"Organization/123456"},{"reference":"Practitioner/practitioner-123456"}]}}]},"request":{"method":"PUT","url":"Bundle/63ec09a6ccb3770120feab67"}}]}