{"resourceType":"Bundle","id":"tests-727cb026-e9d3-416a-b08a-f56b139086e7-bundle","type":"transaction","entry":[{"resource":{"resourceType":"Bundle","id":"63ec09a1ccb3770120fea711","type":"collection","entry":[{"fullUrl":"https://madie.cms.gov/Patient/727cb026-e9d3-416a-b08a-f56b139086e7","resource":{"resourceType":"Patient","id":"727cb026-e9d3-416a-b08a-f56b139086e7","meta":{"profile":["http://hl7.org/fhir/us/qicore/StructureDefinition/qicore-patient"]},"text":{"status":"generated","div":"<div xmlns=\"http://www.w3.org/1999/xhtml\"><div class=\"hapiHeaderText\">CreatAndBicarbLab <b>COMBOPASS </b></div><table class=\"hapiPropertyTable\"><tbody><tr><td>Identifier</td><td>f7053d5904ff43c96857e3f606716bbc2f99b5ab9c0c40826e6d339080f2947c</td></tr><tr><td>Date of birth</td><td><span>15 June 1947</span></td></tr></tbody></table></div>"},"extension":[{"url":"http://hl7.org/fhir/us/core/StructureDefinition/us-core-race","extension":[{"url":"ombCategory","valueCoding":{"system":"urn:oid:2.16.840.1.113883.6.238","code":"1002-5","display":"American Indian or Alaska Native","userSelected":true}},{"url":"text","valueString":"American Indian or Alaska Native"}]},{"url":"http://hl7.org/fhir/us/core/StructureDefinition/us-core-ethnicity","extension":[{"url":"ombCategory","valueCoding":{"system":"urn:oid:2.16.840.1.113883.6.238","code":"2186-5","display":"Not Hispanic or Latino","userSelected":true}},{"url":"text","valueString":"Not Hispanic or Latino"}]}],"identifier":[{"type":{"coding":[{"system":"http://terminology.hl7.org/CodeSystem/v2-0203","code":"MR"}]},"system":"https://bonnie-fhir.healthit.gov/","value":"63ec09a1ccb3770120fea711"}],"active":true,"name":[{"use":"usual","family":"ComboPass","given":["CreatAndBicarbLab"]}],"gender":"male","birthDate":"1947-06-15"}},{"fullUrl":"5dc2da41831f330000d7405f","resource":{"resourceType":"Encounter","id":"5dc2da41831f330000d7405f","meta":{"profile":["http://hl7.org/fhir/us/qicore/StructureDefinition/qicore-encounter"]},"status":"finished","class":{"system":"http://terminology.hl7.org/CodeSystem/v3-ActCode","code":"NONAC","display":"Nonacute","userSelected":true},"type":[{"coding":[{"system":"http://snomed.info/sct","code":"183452005"}]}],"subject":{"reference":"Patient/727cb026-e9d3-416a-b08a-f56b139086e7"},"period":{"start":"2024-07-21T08:00:00.000+00:00","end":"2024-08-18T08:15:00.000+00:00"}}},{"fullUrl":"5f997344034e9d0000996b4f","resource":{"resourceType":"Coverage","id":"5f997344034e9d0000996b4f","meta":{"profile":["http://hl7.org/fhir/us/qicore/StructureDefinition/qicore-coverage"]},"status":"active","type":{"coding":[{"system":"https://nahdo.org/sopt","version":"1.0.1","code":"1","display":"Medicare payer","userSelected":true}]},"beneficiary":{"reference":"Patient/727cb026-e9d3-416a-b08a-f56b139086e7"},"payor":[{"reference":"Organization/123456"}]}},{"fullUrl":"5b55f71ab84846558c53bc09","resource":{"resourceType":"Observation","id":"5b55f71ab84846558c53bc09","meta":{"profile":["http://hl7.org/fhir/us/qicore/StructureDefinition/qicore-observation"]},"status":"final","category":[{"coding":[{"system":"http://terminology.hl7.org/CodeSystem/observation-category","code":"laboratory","display":"laboratory","userSelected":true}]}],"code":{"coding":[{"system":"http://loinc.org","code":"14682-9"}]},"subject":{"reference":"Patient/727cb026-e9d3-416a-b08a-f56b139086e7"},"effectiveDateTime":"2024-07-20T08:01:00.000+00:00","valueQuantity":{"value":1.0}}},{"fullUrl":"5b55f71ab84846558c53bc0b","resource":{"resourceType":"Observation","id":"5b55f71ab84846558c53bc0b","meta":{"profile":["http://hl7.org/fhir/us/qicore/StructureDefinition/qicore-observation"]},"status":"final","category":[{"coding":[{"system":"http://terminology.hl7.org/CodeSystem/observation-category","code":"laboratory","display":"laboratory","userSelected":true}]}],"code":{"coding":[{"system":"http://loinc.org","code":"14682-9"}]},"subject":{"reference":"Patient/727cb026-e9d3-416a-b08a-f56b139086e7"},"effectiveDateTime":"2024-07-20T08:00:00.000+00:00","valueInteger":2}},{"fullUrl":"5dc2e0b6831f330000d745ce","resource":{"resourceType":"Observation","id":"5dc2e0b6831f330000d745ce","meta":{"profile":["http://hl7.org/fhir/us/qicore/StructureDefinition/qicore-observation"]},"status":"amended","category":[{"coding":[{"system":"http://terminology.hl7.org/CodeSystem/observation-category","code":"laboratory","display":"laboratory","userSelected":true}]}],"code":{"coding":[{"system":"http://loinc.org","code":"19230-2"}]},"subject":{"reference":"Patient/727cb026-e9d3-416a-b08a-f56b139086e7"},"effectiveDateTime":"2024-07-21T08:00:00.000+00:00","valueQuantity":{"value":2.0}}},{"fullUrl":"5ddc289a590eb00000ff3db0","resource":{"resourceType":"Observation","id":"5ddc289a590eb00000ff3db0","meta":{"profile":["http://hl7.org/fhir/us/qicore/StructureDefinition/qicore-observation"]},"status":"final","category":[{"coding":[{"system":"http://terminology.hl7.org/CodeSystem/observation-category","code":"laboratory","display":"laboratory","userSelected":true}]}],"code":{"coding":[{"system":"http://loinc.org","code":"19230-2"}]},"subject":{"reference":"Patient/727cb026-e9d3-416a-b08a-f56b139086e7"},"effectiveDateTime":"2024-07-22T08:00:00.000+00:00","valueQuantity":{"value":10.0}}},{"fullUrl":"http://Organization/123456","resource":{"resourceType":"Organization","id":"123456","meta":{"profile":["http://hl7.org/fhir/us/qicore/StructureDefinition/qicore-organization"]},"identifier":[{"use":"temp","system":"urn:oid:2.16.840.1.113883.4.4","value":"21-3259825"}],"active":true,"type":[{"coding":[{"system":"http://terminology.hl7.org/CodeSystem/organization-type","code":"pay","display":"Payer"}]}],"name":"Blue Cross Blue Shield of Texas","telecom":[{"system":"phone","value":"(+1) 972-766-6900"}],"address":[{"use":"billing","type":"postal","line":["P.O. Box 660044"],"city":"Dallas","state":"TX","postalCode":"75266-0044","country":"USA"}]}},{"fullUrl":"http://Practitioner/123456","resource":{"resourceType":"Practitioner","id":"practitioner-123456","meta":{"profile":["http://hl7.org/fhir/us/qicore/StructureDefinition/qicore-practitioner"]},"identifier":[{"system":"http://hl7.org/fhir/sid/us-npi","value":"123456"}],"name":[{"family":"Evil","prefix":["Dr"]}]}},{"fullUrl":"https://madie.cms.gov/MeasureReport/638501714ba3d47c885c02ad/727cb026-e9d3-416a-b08a-f56b139086e7","resource":{"resourceType":"MeasureReport","id":"61b83c0b-17b7-4442-9715-fa8eb8076941","meta":{"profile":["http://hl7.org/fhir/us/cqfmeasures/StructureDefinition/test-case-cqfm"]},"contained":[{"resourceType":"Parameters","id":"CreatAndBicarbLab-parameters","parameter":[{"name":"subject","valueString":"727cb026-e9d3-416a-b08a-f56b139086e7"}]}],"extension":[{"url":"http://hl7.org/fhir/us/cqfmeasures/StructureDefinition/cqfm-inputParameters","valueReference":{"reference":"#CreatAndBicarbLab-parameters"}},{"url":"http://hl7.org/fhir/us/cqfmeasures/StructureDefinition/cqfm-testCaseDescription","valueMarkdown":"2 Creatinine Lab tests during timing interval. \nFirst occurring result included in measure results (occurred 24 hours before encounter start)\n2 Bicarb labs during timing interval.\nFirst lab included in measure results. (Occurred on encounter start)"}],"modifierExtension":[{"url":"http://hl7.org/fhir/us/cqfmeasures/StructureDefinition/cqfm-isTestCase","valueBoolean":true}],"status":"complete","type":"individual","measure":"http://ecqi.healthit.gov/ecqms/Measure/HybridHospitalWideReadmissionFHIR","period":{"start":"2024-07-01","end":"2025-06-30"},"group":[{"population":[{"code":{"coding":[{"system":"http://terminology.hl7.org/CodeSystem/measure-population","code":"initial-population","display":"Initial Population"}]},"count":1}]}],"evaluatedResource":[{"reference":"https://madie.cms.gov/Patient/727cb026-e9d3-416a-b08a-f56b139086e7"},{"reference":"Encounter/5dc2da41831f330000d7405f"},{"reference":"Coverage/5f997344034e9d0000996b4f"},{"reference":"Observation/5b55f71ab84846558c53bc09"},{"reference":"Observation/5b55f71ab84846558c53bc0b"},{"reference":"Observation/5dc2e0b6831f330000d745ce"},{"reference":"Observation/5ddc289a590eb00000ff3db0"},{"reference":"Organization/123456"},{"reference":"Practitioner/practitioner-123456"}]}}]},"request":{"method":"PUT","url":"Bundle/63ec09a1ccb3770120fea711"}}]}