{"resourceType":"Bundle","id":"tests-f342d0e3-3a9d-452e-b4be-67a11c85c030-bundle","type":"transaction","entry":[{"resource":{"resourceType":"Bundle","id":"63ec09acccb3770120feb025","type":"collection","entry":[{"fullUrl":"https://madie.cms.gov/Patient/f342d0e3-3a9d-452e-b4be-67a11c85c030","resource":{"resourceType":"Patient","id":"f342d0e3-3a9d-452e-b4be-67a11c85c030","meta":{"profile":["http://hl7.org/fhir/us/qicore/StructureDefinition/qicore-patient"]},"text":{"status":"generated","div":"<div xmlns=\"http://www.w3.org/1999/xhtml\"><div class=\"hapiHeaderText\">LT24beforeAndLT24after <b>O2SATPASS </b></div><table class=\"hapiPropertyTable\"><tbody><tr><td>Identifier</td><td>ae834fed154ca85310edab5b6b395215b3a2e06a5e5c95c18b6eb8509f2f27e1</td></tr><tr><td>Date of birth</td><td><span>15 June 1947</span></td></tr></tbody></table></div>"},"extension":[{"url":"http://hl7.org/fhir/us/core/StructureDefinition/us-core-race","extension":[{"url":"ombCategory","valueCoding":{"system":"urn:oid:2.16.840.1.113883.6.238","code":"1002-5","display":"American Indian or Alaska Native","userSelected":true}},{"url":"text","valueString":"American Indian or Alaska Native"}]},{"url":"http://hl7.org/fhir/us/core/StructureDefinition/us-core-ethnicity","extension":[{"url":"ombCategory","valueCoding":{"system":"urn:oid:2.16.840.1.113883.6.238","code":"2186-5","display":"Not Hispanic or Latino","userSelected":true}},{"url":"text","valueString":"Not Hispanic or Latino"}]}],"identifier":[{"type":{"coding":[{"system":"http://terminology.hl7.org/CodeSystem/v2-0203","code":"MR"}]},"system":"https://bonnie-fhir.healthit.gov/","value":"63ec09acccb3770120feb025"}],"active":true,"name":[{"use":"usual","family":"O2SatPass","given":["LT24beforeAndLT24after"]}],"gender":"male","birthDate":"1947-06-15"}},{"fullUrl":"5dc2db19831f330000d74182","resource":{"resourceType":"Encounter","id":"5dc2db19831f330000d74182","meta":{"profile":["http://hl7.org/fhir/us/qicore/StructureDefinition/qicore-encounter"]},"status":"finished","class":{"system":"http://terminology.hl7.org/CodeSystem/v3-ActCode","code":"IMP","display":"inpatient encounter","userSelected":true},"type":[{"coding":[{"system":"http://snomed.info/sct","code":"183452005"}]}],"subject":{"reference":"Patient/f342d0e3-3a9d-452e-b4be-67a11c85c030"},"period":{"start":"2024-08-21T08:00:00.000+00:00","end":"2024-08-22T08:15:00.000+00:00"}}},{"fullUrl":"5f98f539a916680000fb6e1a","resource":{"resourceType":"Coverage","id":"5f98f539a916680000fb6e1a","meta":{"profile":["http://hl7.org/fhir/us/qicore/StructureDefinition/qicore-coverage"]},"status":"active","type":{"coding":[{"system":"https://nahdo.org/sopt","version":"1.0.1","code":"1","display":"Medicare payer","userSelected":true}]},"beneficiary":{"reference":"Patient/f342d0e3-3a9d-452e-b4be-67a11c85c030"},"payor":[{"reference":"Organization/123456"}]}},{"fullUrl":"5b55f69ab84846558c53bb54","resource":{"resourceType":"Observation","id":"5b55f69ab84846558c53bb54","meta":{"profile":["http://hl7.org/fhir/us/qicore/StructureDefinition/qicore-observation"]},"status":"final","category":[{"coding":[{"system":"http://terminology.hl7.org/CodeSystem/observation-category","code":"laboratory","display":"laboratory","userSelected":true}]}],"code":{"coding":[{"system":"http://loinc.org","code":"59408-5"}]},"subject":{"reference":"Patient/f342d0e3-3a9d-452e-b4be-67a11c85c030"},"effectiveDateTime":"2024-08-20T20:01:00.000+00:00","valueQuantity":{"value":1.0}}},{"fullUrl":"5b55f69ab84846558c53bb56","resource":{"resourceType":"Observation","id":"5b55f69ab84846558c53bb56","meta":{"profile":["http://hl7.org/fhir/us/qicore/StructureDefinition/qicore-observation"]},"status":"final","category":[{"coding":[{"system":"http://terminology.hl7.org/CodeSystem/observation-category","code":"laboratory","display":"laboratory","userSelected":true}]}],"code":{"coding":[{"system":"http://loinc.org","code":"59408-5"}]},"subject":{"reference":"Patient/f342d0e3-3a9d-452e-b4be-67a11c85c030"},"effectiveDateTime":"2024-08-21T09:59:00.000+00:00","valueQuantity":{"value":2.0}}},{"fullUrl":"http://Organization/123456","resource":{"resourceType":"Organization","id":"123456","meta":{"profile":["http://hl7.org/fhir/us/qicore/StructureDefinition/qicore-organization"]},"identifier":[{"use":"temp","system":"urn:oid:2.16.840.1.113883.4.4","value":"21-3259825"}],"active":true,"type":[{"coding":[{"system":"http://terminology.hl7.org/CodeSystem/organization-type","code":"pay","display":"Payer"}]}],"name":"Blue Cross Blue Shield of Texas","telecom":[{"system":"phone","value":"(+1) 972-766-6900"}],"address":[{"use":"billing","type":"postal","line":["P.O. Box 660044"],"city":"Dallas","state":"TX","postalCode":"75266-0044","country":"USA"}]}},{"fullUrl":"http://Practitioner/123456","resource":{"resourceType":"Practitioner","id":"practitioner-123456","meta":{"profile":["http://hl7.org/fhir/us/qicore/StructureDefinition/qicore-practitioner"]},"identifier":[{"system":"http://hl7.org/fhir/sid/us-npi","value":"123456"}],"name":[{"family":"Evil","prefix":["Dr"]}]}},{"fullUrl":"https://madie.cms.gov/MeasureReport/638501714ba3d47c885c02ad/f342d0e3-3a9d-452e-b4be-67a11c85c030","resource":{"resourceType":"MeasureReport","id":"22960066-cd24-4040-896f-99f52c674363","meta":{"profile":["http://hl7.org/fhir/us/cqfmeasures/StructureDefinition/test-case-cqfm"]},"contained":[{"resourceType":"Parameters","id":"LT24beforeAndLT24after-parameters","parameter":[{"name":"subject","valueString":"f342d0e3-3a9d-452e-b4be-67a11c85c030"}]}],"extension":[{"url":"http://hl7.org/fhir/us/cqfmeasures/StructureDefinition/cqfm-inputParameters","valueReference":{"reference":"#LT24beforeAndLT24after-parameters"}},{"url":"http://hl7.org/fhir/us/cqfmeasures/StructureDefinition/cqfm-testCaseDescription","valueMarkdown":"Encounter starts after start of medicare payer. (Initial population)\n2 physical exams in encounter timing interval.\nOnly result of exam that occurred first is in measure results. "}],"modifierExtension":[{"url":"http://hl7.org/fhir/us/cqfmeasures/StructureDefinition/cqfm-isTestCase","valueBoolean":true}],"status":"complete","type":"individual","measure":"http://ecqi.healthit.gov/ecqms/Measure/HybridHospitalWideReadmissionFHIR","period":{"start":"2024-07-01","end":"2025-06-30"},"group":[{"population":[{"code":{"coding":[{"system":"http://terminology.hl7.org/CodeSystem/measure-population","code":"initial-population","display":"Initial Population"}]},"count":1}]}],"evaluatedResource":[{"reference":"https://madie.cms.gov/Patient/f342d0e3-3a9d-452e-b4be-67a11c85c030"},{"reference":"Encounter/5dc2db19831f330000d74182"},{"reference":"Coverage/5f98f539a916680000fb6e1a"},{"reference":"Observation/5b55f69ab84846558c53bb54"},{"reference":"Observation/5b55f69ab84846558c53bb56"},{"reference":"Organization/123456"},{"reference":"Practitioner/practitioner-123456"}]}}]},"request":{"method":"PUT","url":"Bundle/63ec09acccb3770120feb025"}}]}