{"resourceType":"Bundle","id":"tests-54150016-594d-4755-9a95-be91f761d2b1-bundle","type":"transaction","entry":[{"resource":{"resourceType":"Bundle","id":"63ec09a3ccb3770120fea8f3","type":"collection","entry":[{"fullUrl":"https://madie.cms.gov/Patient/54150016-594d-4755-9a95-be91f761d2b1","resource":{"resourceType":"Patient","id":"54150016-594d-4755-9a95-be91f761d2b1","meta":{"profile":["http://hl7.org/fhir/us/qicore/StructureDefinition/qicore-patient"]},"text":{"status":"generated","div":"<div xmlns=\"http://www.w3.org/1999/xhtml\"><div class=\"hapiHeaderText\">LT2after <b>RRPASS </b></div><table class=\"hapiPropertyTable\"><tbody><tr><td>Identifier</td><td>255c69b90792c6b49f464a750b8b3908d6105383eddce30893f29f67a89ffca6</td></tr><tr><td>Date of birth</td><td><span>15 June 1947</span></td></tr></tbody></table></div>"},"extension":[{"url":"http://hl7.org/fhir/us/core/StructureDefinition/us-core-race","extension":[{"url":"ombCategory","valueCoding":{"system":"urn:oid:2.16.840.1.113883.6.238","code":"2106-3","display":"White","userSelected":true}},{"url":"text","valueString":"White"}]},{"url":"http://hl7.org/fhir/us/core/StructureDefinition/us-core-ethnicity","extension":[{"url":"ombCategory","valueCoding":{"system":"urn:oid:2.16.840.1.113883.6.238","code":"2186-5","display":"Not Hispanic or Latino","userSelected":true}},{"url":"text","valueString":"Not Hispanic or Latino"}]}],"identifier":[{"type":{"coding":[{"system":"http://terminology.hl7.org/CodeSystem/v2-0203","code":"MR"}]},"system":"https://bonnie-fhir.healthit.gov/","value":"63ec09a3ccb3770120fea8f3"}],"active":true,"name":[{"use":"usual","family":"RRPass","given":["LT2after"]}],"gender":"female","birthDate":"1947-06-15"}},{"fullUrl":"5f99692fb977ef0000c02d22","resource":{"resourceType":"Coverage","id":"5f99692fb977ef0000c02d22","meta":{"profile":["http://hl7.org/fhir/us/qicore/StructureDefinition/qicore-coverage"]},"status":"active","type":{"coding":[{"system":"https://nahdo.org/sopt","version":"1.0.1","code":"1","display":"Medicare payer","userSelected":true}]},"policyHolder":{"reference":"Patient/54150016-594d-4755-9a95-be91f761d2b1"},"beneficiary":{"reference":"Patient/54150016-594d-4755-9a95-be91f761d2b1"},"dependent":"0","relationship":{"coding":[{"system":"http://terminology.hl7.org/CodeSystem/subscriber-relationship","code":"self"}]},"period":{"start":"2020-01-01T06:00:00.000Z","end":"2030-01-01T11:06:01.000Z"},"payor":[{"reference":"Organization/123456"}]}},{"fullUrl":"5dc2db4f831f330000d74219","resource":{"resourceType":"Encounter","id":"5dc2db4f831f330000d74219","meta":{"profile":["http://hl7.org/fhir/us/qicore/StructureDefinition/qicore-encounter"]},"status":"finished","class":{"system":"http://terminology.hl7.org/CodeSystem/v3-ActCode","code":"ACUTE","display":"Acute","userSelected":true},"type":[{"coding":[{"system":"http://snomed.info/sct","code":"183452005"}]}],"subject":{"reference":"Patient/54150016-594d-4755-9a95-be91f761d2b1"},"period":{"start":"2024-08-21T08:00:00.000+00:00","end":"2024-08-22T08:15:00.000+00:00"}}},{"fullUrl":"5b7c5511b84846299c81a50f","resource":{"resourceType":"Observation","id":"5b7c5511b84846299c81a50f","meta":{"profile":["http://hl7.org/fhir/us/qicore/StructureDefinition/qicore-observation"]},"status":"final","category":[{"coding":[{"system":"http://terminology.hl7.org/CodeSystem/observation-category","code":"laboratory","display":"laboratory","userSelected":true}]}],"code":{"coding":[{"system":"http://loinc.org","code":"9279-1"}]},"subject":{"reference":"Patient/54150016-594d-4755-9a95-be91f761d2b1"},"effectiveDateTime":"2024-08-21T09:00:00.000+00:00","valueQuantity":{"value":3.0}}},{"fullUrl":"http://Organization/123456","resource":{"resourceType":"Organization","id":"123456","meta":{"profile":["http://hl7.org/fhir/us/qicore/StructureDefinition/qicore-organization"]},"identifier":[{"use":"temp","system":"urn:oid:2.16.840.1.113883.4.4","value":"21-3259825"}],"active":true,"type":[{"coding":[{"system":"http://terminology.hl7.org/CodeSystem/organization-type","code":"pay","display":"Payer"}]}],"name":"Blue Cross Blue Shield of Texas","telecom":[{"system":"phone","value":"(+1) 972-766-6900"}],"address":[{"use":"billing","type":"postal","line":["P.O. Box 660044"],"city":"Dallas","state":"TX","postalCode":"75266-0044","country":"USA"}]}},{"fullUrl":"http://Practitioner/123456","resource":{"resourceType":"Practitioner","id":"practitioner-123456","meta":{"profile":["http://hl7.org/fhir/us/qicore/StructureDefinition/qicore-practitioner"]},"identifier":[{"system":"http://hl7.org/fhir/sid/us-npi","value":"123456"}],"name":[{"family":"Evil","prefix":["Dr"]}]}},{"fullUrl":"https://madie.cms.gov/MeasureReport/638501714ba3d47c885c02ad/54150016-594d-4755-9a95-be91f761d2b1","resource":{"resourceType":"MeasureReport","id":"94987c9c-148b-4db4-b24d-98d889ee5482","meta":{"profile":["http://hl7.org/fhir/us/cqfmeasures/StructureDefinition/test-case-cqfm"]},"contained":[{"resourceType":"Parameters","id":"LT2after-parameters","parameter":[{"name":"subject","valueString":"54150016-594d-4755-9a95-be91f761d2b1"}]}],"extension":[{"url":"http://hl7.org/fhir/us/cqfmeasures/StructureDefinition/cqfm-inputParameters","valueReference":{"reference":"#LT2after-parameters"}},{"url":"http://hl7.org/fhir/us/cqfmeasures/StructureDefinition/cqfm-testCaseDescription","valueMarkdown":"Patient has a Respiratory rate exam. \nExam occurred within encounter timing interval. (On admittance)\nExam results included in measure results. "}],"modifierExtension":[{"url":"http://hl7.org/fhir/us/cqfmeasures/StructureDefinition/cqfm-isTestCase","valueBoolean":true}],"status":"complete","type":"individual","measure":"http://ecqi.healthit.gov/ecqms/Measure/HybridHospitalWideReadmissionFHIR","period":{"start":"2024-07-01","end":"2025-06-30"},"group":[{"population":[{"code":{"coding":[{"system":"http://terminology.hl7.org/CodeSystem/measure-population","code":"initial-population","display":"Initial Population"}]},"count":1}]}],"evaluatedResource":[{"reference":"https://madie.cms.gov/Patient/54150016-594d-4755-9a95-be91f761d2b1"},{"reference":"Coverage/5f99692fb977ef0000c02d22"},{"reference":"Encounter/5dc2db4f831f330000d74219"},{"reference":"Observation/5b7c5511b84846299c81a50f"},{"reference":"Organization/123456"},{"reference":"Practitioner/practitioner-123456"}]}}]},"request":{"method":"PUT","url":"Bundle/63ec09a3ccb3770120fea8f3"}}]}