{"resourceType":"Bundle","id":"tests-fc2d285b-57bd-4291-9433-c0c4a939c272-bundle","type":"transaction","entry":[{"resource":{"resourceType":"Bundle","id":"63ec09a1ccb3770120fea69e","type":"collection","entry":[{"fullUrl":"https://madie.cms.gov/Patient/fc2d285b-57bd-4291-9433-c0c4a939c272","resource":{"resourceType":"Patient","id":"fc2d285b-57bd-4291-9433-c0c4a939c272","meta":{"profile":["http://hl7.org/fhir/us/qicore/StructureDefinition/qicore-patient"]},"text":{"status":"generated","div":"<div xmlns=\"http://www.w3.org/1999/xhtml\"><div class=\"hapiHeaderText\">mult_encounter <b>HEMATPASS </b></div><table class=\"hapiPropertyTable\"><tbody><tr><td>Identifier</td><td>0b0b6c802130d5b66a3466c997a615f6beda2b53bbc78e8db2630bb4e261c989</td></tr><tr><td>Date of birth</td><td><span>21 June 1947</span></td></tr></tbody></table></div>"},"extension":[{"url":"http://hl7.org/fhir/us/core/StructureDefinition/us-core-race","extension":[{"url":"ombCategory","valueCoding":{"system":"urn:oid:2.16.840.1.113883.6.238","code":"2028-9","display":"Asian","userSelected":true}},{"url":"text","valueString":"Asian"}]},{"url":"http://hl7.org/fhir/us/core/StructureDefinition/us-core-ethnicity","extension":[{"url":"ombCategory","valueCoding":{"system":"urn:oid:2.16.840.1.113883.6.238","code":"2186-5","display":"Not Hispanic or Latino","userSelected":true}},{"url":"text","valueString":"Not Hispanic or Latino"}]}],"identifier":[{"type":{"coding":[{"system":"http://terminology.hl7.org/CodeSystem/v2-0203","code":"MR"}]},"system":"https://bonnie-fhir.healthit.gov/","value":"63ec09a1ccb3770120fea69e"}],"active":true,"name":[{"use":"usual","family":"HematPass","given":["MultEncounter"]}],"gender":"female","birthDate":"1947-06-21"}},{"fullUrl":"5dc2dacd831f330000d740f1","resource":{"resourceType":"Encounter","id":"5dc2dacd831f330000d740f1","meta":{"profile":["http://hl7.org/fhir/us/qicore/StructureDefinition/qicore-encounter"]},"status":"finished","class":{"system":"http://terminology.hl7.org/CodeSystem/v3-ActCode","code":"IMP","display":"inpatient encounter","userSelected":true},"type":[{"coding":[{"system":"http://snomed.info/sct","code":"183452005"}]}],"subject":{"reference":"Patient/fc2d285b-57bd-4291-9433-c0c4a939c272"},"period":{"start":"2024-08-21T08:00:00.000+00:00","end":"2024-08-22T08:15:00.000+00:00"}}},{"fullUrl":"5ded666d26a90b00007289ce","resource":{"resourceType":"Encounter","id":"5ded666d26a90b00007289ce","meta":{"profile":["http://hl7.org/fhir/us/qicore/StructureDefinition/qicore-encounter"]},"status":"finished","class":{"system":"http://terminology.hl7.org/CodeSystem/v3-ActCode","code":"IMP","display":"inpatient encounter","userSelected":true},"type":[{"coding":[{"system":"http://snomed.info/sct","code":"183452005"}]}],"subject":{"reference":"Patient/fc2d285b-57bd-4291-9433-c0c4a939c272"},"period":{"start":"2024-08-25T08:00:00.000+00:00","end":"2024-08-27T08:15:00.000+00:00"}}},{"fullUrl":"5f98f4c1a916680000fb6d03","resource":{"resourceType":"Coverage","id":"5f98f4c1a916680000fb6d03","meta":{"profile":["http://hl7.org/fhir/us/qicore/StructureDefinition/qicore-coverage"]},"status":"active","type":{"coding":[{"system":"https://nahdo.org/sopt","version":"1.0.1","code":"1","display":"Medicare payer","userSelected":true}]},"beneficiary":{"reference":"Patient/fc2d285b-57bd-4291-9433-c0c4a939c272"},"payor":[{"reference":"Organization/123456"}]}},{"fullUrl":"5b55f69ab84846558c53bb4e","resource":{"resourceType":"Observation","id":"5b55f69ab84846558c53bb4e","meta":{"profile":["http://hl7.org/fhir/us/qicore/StructureDefinition/qicore-observation"]},"status":"final","category":[{"coding":[{"system":"http://terminology.hl7.org/CodeSystem/observation-category","code":"laboratory","display":"laboratory","userSelected":true}]}],"code":{"coding":[{"system":"http://loinc.org","code":"20570-8"}]},"subject":{"reference":"Patient/fc2d285b-57bd-4291-9433-c0c4a939c272"},"effectiveDateTime":"2024-08-21T10:00:00.000+00:00","valueQuantity":{"value":1.0,"unit":"%"}}},{"fullUrl":"5ded669d26a90b0000728a12","resource":{"resourceType":"Observation","id":"5ded669d26a90b0000728a12","meta":{"profile":["http://hl7.org/fhir/StructureDefinition/vitalsigns"]},"status":"final","category":[{"coding":[{"system":"http://terminology.hl7.org/CodeSystem/observation-category","code":"vital-signs","display":"Vital Signs"}],"text":"Vital Signs"}],"code":{"coding":[{"system":"http://loinc.org","code":"20570-8"}]},"subject":{"reference":"Patient/fc2d285b-57bd-4291-9433-c0c4a939c272"},"effectiveDateTime":"2024-08-25T10:00:00.000+00:00","valueQuantity":{"value":2.0,"unit":"%"}}},{"fullUrl":"http://Organization/123456","resource":{"resourceType":"Organization","id":"123456","meta":{"profile":["http://hl7.org/fhir/us/qicore/StructureDefinition/qicore-organization"]},"identifier":[{"use":"temp","system":"urn:oid:2.16.840.1.113883.4.4","value":"21-3259825"}],"active":true,"type":[{"coding":[{"system":"http://terminology.hl7.org/CodeSystem/organization-type","code":"pay","display":"Payer"}]}],"name":"Blue Cross Blue Shield of Texas","telecom":[{"system":"phone","value":"(+1) 972-766-6900"}],"address":[{"use":"billing","type":"postal","line":["P.O. Box 660044"],"city":"Dallas","state":"TX","postalCode":"75266-0044","country":"USA"}]}},{"fullUrl":"http://Practitioner/123456","resource":{"resourceType":"Practitioner","id":"practitioner-123456","meta":{"profile":["http://hl7.org/fhir/us/qicore/StructureDefinition/qicore-practitioner"]},"identifier":[{"system":"http://hl7.org/fhir/sid/us-npi","value":"123456"}],"name":[{"family":"Evil","prefix":["Dr"]}]}},{"fullUrl":"https://madie.cms.gov/MeasureReport/638501714ba3d47c885c02ad/fc2d285b-57bd-4291-9433-c0c4a939c272","resource":{"resourceType":"MeasureReport","id":"e82fa553-80cc-4dc0-87d0-e98c03bbe03f","meta":{"profile":["http://hl7.org/fhir/us/cqfmeasures/StructureDefinition/test-case-cqfm"]},"contained":[{"resourceType":"Parameters","id":"MultEncounter-parameters","parameter":[{"name":"subject","valueString":"fc2d285b-57bd-4291-9433-c0c4a939c272"}]}],"extension":[{"url":"http://hl7.org/fhir/us/cqfmeasures/StructureDefinition/cqfm-inputParameters","valueReference":{"reference":"#MultEncounter-parameters"}},{"url":"http://hl7.org/fhir/us/cqfmeasures/StructureDefinition/cqfm-testCaseDescription","valueMarkdown":"Patient had two encounters. \nBoth encounters included Hematocrit lab tests results within 1 day of start of encounter.\nBoth lab test results included in measure results. "}],"modifierExtension":[{"url":"http://hl7.org/fhir/us/cqfmeasures/StructureDefinition/cqfm-isTestCase","valueBoolean":true}],"status":"complete","type":"individual","measure":"http://ecqi.healthit.gov/ecqms/Measure/HybridHospitalWideReadmissionFHIR","period":{"start":"2024-07-01","end":"2025-06-30"},"group":[{"population":[{"code":{"coding":[{"system":"http://terminology.hl7.org/CodeSystem/measure-population","code":"initial-population","display":"Initial Population"}]},"count":2}]}],"evaluatedResource":[{"reference":"https://madie.cms.gov/Patient/fc2d285b-57bd-4291-9433-c0c4a939c272"},{"reference":"Encounter/5dc2dacd831f330000d740f1"},{"reference":"Encounter/5ded666d26a90b00007289ce"},{"reference":"Coverage/5f98f4c1a916680000fb6d03"},{"reference":"Observation/5b55f69ab84846558c53bb4e"},{"reference":"Observation/5ded669d26a90b0000728a12"},{"reference":"Organization/123456"},{"reference":"Practitioner/practitioner-123456"}]}}]},"request":{"method":"PUT","url":"Bundle/63ec09a1ccb3770120fea69e"}}]}