{"resourceType":"Bundle","id":"tests-458dd1d9-f5d6-4b5f-867c-8521f1d3330d-bundle","type":"transaction","entry":[{"resource":{"resourceType":"Bundle","id":"64134fbf9ea858e8074ee64d","type":"collection","entry":[{"fullUrl":"https://madie.cms.gov/Patient/458dd1d9-f5d6-4b5f-867c-8521f1d3330d","resource":{"resourceType":"Patient","id":"458dd1d9-f5d6-4b5f-867c-8521f1d3330d","meta":{"profile":["http://hl7.org/fhir/us/qicore/StructureDefinition/qicore-patient"]},"extension":[{"url":"http://hl7.org/fhir/us/core/StructureDefinition/us-core-race","extension":[{"url":"ombCategory","valueCoding":{"system":"urn:oid:2.16.840.1.113883.6.238","code":"2028-9","display":"Asian","userSelected":true}},{"url":"text","valueString":"Asian"}]},{"url":"http://hl7.org/fhir/us/core/StructureDefinition/us-core-ethnicity","extension":[{"url":"ombCategory","valueCoding":{"system":"urn:oid:2.16.840.1.113883.6.238","code":"2186-5","display":"Not Hispanic or Latino","userSelected":true}},{"url":"text","valueString":"Not Hispanic or Latino"}]}],"identifier":[{"type":{"coding":[{"system":"http://terminology.hl7.org/CodeSystem/v2-0203","code":"MR"}]},"system":"https://bonnie-fhir.healthit.gov/","value":"64134fbf9ea858e8074ee64d"}],"name":[{"family":"IPPFail","given":["PtwithVirtualEnc"]}],"gender":"female","birthDate":"1991-06-01"}},{"fullUrl":"http://GoodHealthCare.com/fhir/Condition/6000320008","resource":{"resourceType":"Condition","id":"6000320008","meta":{"profile":["http://hl7.org/fhir/us/qicore/StructureDefinition/qicore-condition"]},"clinicalStatus":{"coding":[{"system":"http://terminology.hl7.org/CodeSystem/condition-clinical","code":"active","display":"active","userSelected":true}]},"category":[{"coding":[{"system":"http://terminology.hl7.org/CodeSystem/condition-category","code":"problem-list-item","display":"problem-list-item","userSelected":true}]}],"code":{"coding":[{"system":"http://snomed.info/sct","version":"http://snomed.info/sct/731000124108/version/202303","code":"111513000","display":"Advanced open-angle glaucoma (disorder)","userSelected":true},{"system":"http://hl7.org/fhir/sid/icd-10-cm","version":"2023","code":"H40.10X0","userSelected":true}]},"subject":{"reference":"Patient/458dd1d9-f5d6-4b5f-867c-8521f1d3330d"},"onsetDateTime":"2012-11-09T08:00:00.000+00:00"}},{"fullUrl":"http://GoodHealthCare.com/fhir/Encounter/6000320004","resource":{"resourceType":"Encounter","id":"6000320004","meta":{"profile":["http://hl7.org/fhir/us/qicore/StructureDefinition/qicore-encounter"]},"status":"finished","class":{"system":"http://terminology.hl7.org/CodeSystem/v3-ActCode","code":"VR","display":"virtual","userSelected":true},"type":[{"coding":[{"system":"http://snomed.info/sct","version":"http://snomed.info/sct/731000124108/version/202303","code":"185463005","display":"Visit out of hours (procedure)","userSelected":true}]}],"subject":{"reference":"Patient/458dd1d9-f5d6-4b5f-867c-8521f1d3330d"},"period":{"start":"2024-01-09T08:00:00.000+00:00","end":"2024-01-09T09:15:00.000+00:00"}}},{"fullUrl":"http://GoodHealthCare.com/fhir/Observation/6000320003","resource":{"resourceType":"Observation","id":"6000320003","meta":{"profile":["http://hl7.org/fhir/us/qicore/StructureDefinition/qicore-observation"]},"status":"final","category":[{"coding":[{"system":"http://terminology.hl7.org/CodeSystem/observation-category","code":"laboratory","display":"laboratory","userSelected":true}]}],"code":{"coding":[{"system":"http://loinc.org","version":"2.73","code":"71484-0","display":"Left optic nerve Cup-disc ratio by Ophthalmoscopy","userSelected":true}]},"subject":{"reference":"Patient/458dd1d9-f5d6-4b5f-867c-8521f1d3330d"},"effectiveDateTime":"2024-01-09T09:00:00.000+00:00","valueBoolean":true}},{"fullUrl":"http://GoodHealthCare.com/fhir/Observation/6000320001","resource":{"resourceType":"Observation","id":"6000320001","meta":{"profile":["http://hl7.org/fhir/us/qicore/StructureDefinition/qicore-observation"]},"status":"final","category":[{"coding":[{"system":"http://terminology.hl7.org/CodeSystem/observation-category","code":"laboratory","display":"laboratory","userSelected":true}]}],"code":{"coding":[{"system":"http://loinc.org","version":"2.73","code":"71486-5","display":"Left eye Optic disc or retinal nerve fiber layer structural abnormalities by Ophthalmoscopy","userSelected":true}]},"subject":{"reference":"Patient/458dd1d9-f5d6-4b5f-867c-8521f1d3330d"},"effectiveDateTime":"2024-01-09T09:00:00.000+00:00","valueBoolean":true}},{"fullUrl":"https://madie.cms.gov/MeasureReport/6467cfd1be9def4e0b01b11a/458dd1d9-f5d6-4b5f-867c-8521f1d3330d","resource":{"resourceType":"MeasureReport","id":"e2b83f55-13c1-41f9-8f5d-96f34fe0b7d9","meta":{"profile":["http://hl7.org/fhir/us/cqfmeasures/StructureDefinition/test-case-cqfm"]},"contained":[{"resourceType":"Parameters","id":"PtwithVirtualEnc-parameters","parameter":[{"name":"subject","valueString":"458dd1d9-f5d6-4b5f-867c-8521f1d3330d"}]}],"extension":[{"url":"http://hl7.org/fhir/us/cqfmeasures/StructureDefinition/cqfm-inputParameters","valueReference":{"reference":"#PtwithVirtualEnc-parameters"}},{"url":"http://hl7.org/fhir/us/cqfmeasures/StructureDefinition/cqfm-testCaseDescription","valueMarkdown":"Patient has an otherwise qualifying encounter but their qualifying encounter was held virtually"}],"modifierExtension":[{"url":"http://hl7.org/fhir/us/cqfmeasures/StructureDefinition/cqfm-isTestCase","valueBoolean":true}],"status":"complete","type":"individual","measure":"http://ecqi.healthit.gov/ecqms/Measure/POAGOpticNerveEvaluationFHIR","period":{"start":"2024-01-01","end":"2024-12-31"},"group":[{"population":[{"code":{"coding":[{"system":"http://terminology.hl7.org/CodeSystem/measure-population","code":"initial-population","display":"Initial Population"}]},"count":0},{"code":{"coding":[{"system":"http://terminology.hl7.org/CodeSystem/measure-population","code":"denominator","display":"Denominator"}]},"count":0},{"code":{"coding":[{"system":"http://terminology.hl7.org/CodeSystem/measure-population","code":"denominator-exception","display":"Denominator Exception"}]},"count":0},{"code":{"coding":[{"system":"http://terminology.hl7.org/CodeSystem/measure-population","code":"numerator","display":"Numerator"}]},"count":0}]}],"evaluatedResource":[{"reference":"https://madie.cms.gov/Patient/458dd1d9-f5d6-4b5f-867c-8521f1d3330d"},{"reference":"http://GoodHealthCare.com/fhir/Condition/6000320008"},{"reference":"http://GoodHealthCare.com/fhir/Encounter/6000320004"},{"reference":"http://GoodHealthCare.com/fhir/Observation/6000320003"},{"reference":"http://GoodHealthCare.com/fhir/Observation/6000320001"}]}}]},"request":{"method":"PUT","url":"Bundle/64134fbf9ea858e8074ee64d"}}]}