{"resourceType":"Bundle","id":"tests-2cca67ad-d05c-4bd2-aa74-d5ba553b9afc-bundle","type":"transaction","entry":[{"resource":{"resourceType":"Bundle","id":"6109658e98086b538055b9e2","type":"collection","entry":[{"fullUrl":"https://madie.cms.gov/Patient/2cca67ad-d05c-4bd2-aa74-d5ba553b9afc","resource":{"resourceType":"Patient","id":"2cca67ad-d05c-4bd2-aa74-d5ba553b9afc","meta":{"profile":["http://hl7.org/fhir/us/qicore/StructureDefinition/qicore-patient"]},"extension":[{"url":"http://hl7.org/fhir/us/core/StructureDefinition/us-core-race","extension":[{"url":"ombCategory","valueCoding":{"system":"urn:oid:2.16.840.1.113883.6.238","code":"2054-5","display":"Black or African American","userSelected":true}},{"url":"text","valueString":"Black or African American"}]},{"url":"http://hl7.org/fhir/us/core/StructureDefinition/us-core-ethnicity","extension":[{"url":"ombCategory","valueCoding":{"system":"urn:oid:2.16.840.1.113883.6.238","code":"2186-5","display":"Not Hispanic or Latino","userSelected":true}},{"url":"text","valueString":"Not Hispanic or Latino"}]}],"identifier":[{"type":{"coding":[{"system":"http://terminology.hl7.org/CodeSystem/v2-0203","code":"MR"}]},"system":"https://GoodHealthCare.com/","value":"6109658e98086b538055b9e2"}],"active":true,"name":[{"use":"usual","family":"NUMERFail","given":["OpticDiscExamAfterEnc"]}],"gender":"female","birthDate":"1969-07-12"}},{"fullUrl":"http://GoodHealthCare.com/fhir/Condition/5c9a433bb8484623838502ba","resource":{"resourceType":"Condition","id":"5c9a433bb8484623838502ba","meta":{"profile":["http://hl7.org/fhir/us/qicore/StructureDefinition/qicore-condition"]},"clinicalStatus":{"coding":[{"system":"http://terminology.hl7.org/CodeSystem/condition-clinical","code":"active","display":"active","userSelected":true}]},"category":[{"coding":[{"system":"http://terminology.hl7.org/CodeSystem/condition-category","code":"problem-list-item","display":"problem-list-item","userSelected":true}]}],"code":{"coding":[{"system":"http://snomed.info/sct","version":"http://snomed.info/sct/731000124108/version/20230301","code":"15633321000119108","display":"Primary open angle glaucoma of left eye (disorder)"}]},"subject":{"reference":"Patient/2cca67ad-d05c-4bd2-aa74-d5ba553b9afc"},"onsetDateTime":"2021-07-27T10:30:00+00:00"}},{"fullUrl":"http://GoodHealthCare.com/fhir/Observation/5c9a433bb8484623838502bc","resource":{"resourceType":"Observation","id":"5c9a433bb8484623838502bc","meta":{"profile":["http://hl7.org/fhir/us/qicore/StructureDefinition/qicore-observation"]},"status":"final","category":[{"coding":[{"system":"http://terminology.hl7.org/CodeSystem/observation-category","code":"laboratory","display":"laboratory","userSelected":true}]}],"code":{"coding":[{"system":"http://loinc.org","code":"71484-0"}]},"subject":{"reference":"Patient/2cca67ad-d05c-4bd2-aa74-d5ba553b9afc"},"effectivePeriod":{"start":"2024-06-01T09:10:00.000+00:00","end":"2024-06-01T09:20:00.000+00:00"},"valueQuantity":{"value":0.7}}},{"fullUrl":"http://GoodHealthCare.com/fhir/Observation/5c9a433bb8484623838502be","resource":{"resourceType":"Observation","id":"5c9a433bb8484623838502be","meta":{"profile":["http://hl7.org/fhir/us/qicore/StructureDefinition/qicore-observation"]},"status":"final","category":[{"coding":[{"system":"http://terminology.hl7.org/CodeSystem/observation-category","code":"laboratory","display":"laboratory","userSelected":true}]}],"code":{"coding":[{"system":"http://loinc.org","version":"2.73","code":"71486-5"}]},"subject":{"reference":"Patient/2cca67ad-d05c-4bd2-aa74-d5ba553b9afc"},"effectivePeriod":{"start":"2024-07-09T12:40:00.000+00:00","end":"2024-07-09T13:40:00.000+00:00"},"valueCodeableConcept":{"coding":[{"system":"http://loinc.org","code":"71486-5","display":"Optic Disc Exam for Structural Abnormalities"}]}}},{"fullUrl":"http://GoodHealthCare.com/fhir/Encounter/5c9a433bb8484623838502bb","resource":{"resourceType":"Encounter","id":"5c9a433bb8484623838502bb","meta":{"profile":["http://hl7.org/fhir/us/qicore/StructureDefinition/qicore-encounter"]},"status":"finished","class":{"system":"http://terminology.hl7.org/CodeSystem/v3-ActCode","code":"AMB","display":"ambulatory","userSelected":true},"type":[{"coding":[{"system":"http://snomed.info/sct","version":"http://snomed.info/sct/731000124108/version/20230301","code":"66902005","display":"Ophthalmic examination and evaluation, follow-up (procedure)"}]}],"subject":{"reference":"Patient/2cca67ad-d05c-4bd2-aa74-d5ba553b9afc"},"period":{"start":"2024-06-01T09:00:00.000+00:00","end":"2024-06-01T09:45:00.000+00:00"},"length":{"value":0.0,"unit":"days"}}},{"fullUrl":"http://GoodHealthcare.com/fhir/Coverage/6846813516441","resource":{"resourceType":"Coverage","id":"6846813516441","meta":{"profile":["http://hl7.org/fhir/us/qicore/StructureDefinition/qicore-coverage"]},"identifier":[{"system":"http://benefitsinc.com/certificate","value":"12345"}],"status":"active","type":{"coding":[{"system":"https://nahdo.org/sopt","version":"9.2","code":"59","display":"Other Private Insurance"}]},"beneficiary":{"reference":"Patient/2cca67ad-d05c-4bd2-aa74-d5ba553b9afc"},"dependent":"0","relationship":{"coding":[{"system":"http://terminology.hl7.org/CodeSystem/subscriber-relationship","code":"self"}]},"period":{"start":"2015-05-23","end":"2025-05-23"},"payor":[{"reference":"Organization/4654531645616"}],"order":9}},{"fullUrl":"http://GoodHealthcare.com/fhir/Organization/4654531645616","resource":{"resourceType":"Organization","id":"4654531645616","meta":{"profile":["http://hl7.org/fhir/us/qicore/StructureDefinition/qicore-organization"]},"identifier":[{"use":"temp","system":"http://terminology.hl7.org/NamingSystem/USEIN","value":"48915164351354"}],"active":true,"type":[{"coding":[{"system":"http://terminology.hl7.org/CodeSystem/organization-type","code":"team","display":"Organizational team"}]}],"name":"Good Healthcare, LLC","telecom":[{"system":"phone","value":"(+1) 901-683-7777"},{"system":"fax","value":"(+1) 901-683-6622"},{"system":"email","value":"BetterYourHealth@GoodHealthcare.com"}],"address":[{"line":["3651 Wentrow Blvd, Suite 227"],"city":"Germantown","state":"TN","postalCode":"38138","country":"USA"}]}},{"fullUrl":"https://madie.cms.gov/MeasureReport/6467cfd1be9def4e0b01b11a/2cca67ad-d05c-4bd2-aa74-d5ba553b9afc","resource":{"resourceType":"MeasureReport","id":"8928afb4-4d84-422f-b618-4405c91ac9a3","meta":{"profile":["http://hl7.org/fhir/us/cqfmeasures/StructureDefinition/test-case-cqfm"]},"contained":[{"resourceType":"Parameters","id":"OpticDiscExamAfterEnc-parameters","parameter":[{"name":"subject","valueString":"2cca67ad-d05c-4bd2-aa74-d5ba553b9afc"}]}],"extension":[{"url":"http://hl7.org/fhir/us/cqfmeasures/StructureDefinition/cqfm-inputParameters","valueReference":{"reference":"#OpticDiscExamAfterEnc-parameters"}},{"url":"http://hl7.org/fhir/us/cqfmeasures/StructureDefinition/cqfm-testCaseDescription","valueMarkdown":"Patient with POAG dx, Ophthalmological Vist and with Cup to Disc Ratio and Optic Disc exam and Optic Disc exam performed outside of Encounter period."}],"modifierExtension":[{"url":"http://hl7.org/fhir/us/cqfmeasures/StructureDefinition/cqfm-isTestCase","valueBoolean":true}],"status":"complete","type":"individual","measure":"http://ecqi.healthit.gov/ecqms/Measure/POAGOpticNerveEvaluationFHIR","period":{"start":"2024-01-01","end":"2024-12-31"},"group":[{"population":[{"code":{"coding":[{"system":"http://terminology.hl7.org/CodeSystem/measure-population","code":"initial-population","display":"Initial Population"}]},"count":1},{"code":{"coding":[{"system":"http://terminology.hl7.org/CodeSystem/measure-population","code":"denominator","display":"Denominator"}]},"count":1},{"code":{"coding":[{"system":"http://terminology.hl7.org/CodeSystem/measure-population","code":"denominator-exception","display":"Denominator Exception"}]},"count":0},{"code":{"coding":[{"system":"http://terminology.hl7.org/CodeSystem/measure-population","code":"numerator","display":"Numerator"}]},"count":0}]}],"evaluatedResource":[{"reference":"https://madie.cms.gov/Patient/2cca67ad-d05c-4bd2-aa74-d5ba553b9afc"},{"reference":"http://GoodHealthCare.com/fhir/Condition/5c9a433bb8484623838502ba"},{"reference":"http://GoodHealthCare.com/fhir/Observation/5c9a433bb8484623838502bc"},{"reference":"http://GoodHealthCare.com/fhir/Observation/5c9a433bb8484623838502be"},{"reference":"http://GoodHealthCare.com/fhir/Encounter/5c9a433bb8484623838502bb"},{"reference":"http://GoodHealthcare.com/fhir/Coverage/6846813516441"},{"reference":"http://GoodHealthcare.com/fhir/Organization/4654531645616"}]}}]},"request":{"method":"PUT","url":"Bundle/6109658e98086b538055b9e2"}}]}