{
  "resourceType": "Bundle",
  "id": "6129135502c62a011f2e752c",
  "type": "collection",
  "entry": [ {
    "fullUrl": "6129135502c62a011f2e752c",
    "resource": {
      "resourceType": "Patient",
      "id": "6129135502c62a011f2e752c",
      "meta": {
        "profile": [ "http://hl7.org/fhir/us/qicore/StructureDefinition/qicore-patient" ]
      },
      "text": {
        "status": "generated",
        "div": "<div xmlns=\"http://www.w3.org/1999/xhtml\"><div class=\"hapiHeaderText\"> CMOdurDiffEDTestOccur <b>DENEXFail </b></div><table class=\"hapiPropertyTable\"><tbody><tr><td>Identifier</td><td>8ca2b35206ea67637d1637609c7d085ff3b14c20bc19eae5b26464da239a5345</td></tr><tr><td>Date of birth</td><td><span>21 August 1994</span></td></tr></tbody></table></div>"
      },
      "extension": [ {
        "url": "http://hl7.org/fhir/us/core/StructureDefinition/us-core-race",
        "extension": [ {
          "url": "ombCategory",
          "valueCoding": {
            "system": "urn:oid:2.16.840.1.113883.6.238",
            "code": "1002-5",
            "display": "American Indian or Alaska Native",
            "userSelected": true
          }
        }, {
          "url": "text",
          "valueString": "American Indian or Alaska Native"
        } ]
      }, {
        "url": "http://hl7.org/fhir/us/core/StructureDefinition/us-core-ethnicity",
        "extension": [ {
          "url": "ombCategory",
          "valueCoding": {
            "system": "urn:oid:2.16.840.1.113883.6.238",
            "code": "2135-2",
            "display": "Hispanic or Latino",
            "userSelected": true
          }
        }, {
          "url": "text",
          "valueString": "Hispanic or Latino"
        } ]
      } ],
      "identifier": [ {
        "type": {
          "coding": [ {
            "system": "http://terminology.hl7.org/CodeSystem/v2-0203",
            "code": "MR"
          } ]
        },
        "system": "https://bonnie-fhir.healthit.gov/",
        "value": "6129135502c62a011f2e752c"
      } ],
      "active": true,
      "name": [ {
        "use": "usual",
        "family": "DENEXFail",
        "given": [ " CMOdurDiffEDTestOccur" ]
      } ],
      "gender": "male",
      "birthDate": "1994-08-21"
    }
  }, {
    "fullUrl": "5ca4cde2b8484613a5552a66",
    "resource": {
      "resourceType": "Encounter",
      "id": "5ca4cde2b8484613a5552a66",
      "meta": {
        "profile": [ "http://hl7.org/fhir/us/qicore/StructureDefinition/qicore-encounter" ]
      },
      "status": "finished",
      "class": {
        "system": "http://terminology.hl7.org/CodeSystem/v3-ActCode",
        "code": "EMER",
        "display": "emergency",
        "userSelected": true
      },
      "type": [ {
        "coding": [ {
          "system": "http://snomed.info/sct",
          "code": "4525004"
        } ]
      } ],
      "subject": {
        "reference": "Patient/6129135502c62a011f2e752c"
      },
      "period": {
        "start": "2024-10-10T12:31:00.000+00:00",
        "end": "2024-10-10T12:46:00.000+00:00"
      },
      "length": {
        "value": 0.0,
        "unit": "days"
      }
    }
  }, {
    "fullUrl": "5ca4cde2b8484613a5552a67",
    "resource": {
      "resourceType": "Encounter",
      "id": "5ca4cde2b8484613a5552a67",
      "meta": {
        "profile": [ "http://hl7.org/fhir/us/qicore/StructureDefinition/qicore-encounter" ]
      },
      "status": "finished",
      "class": {
        "system": "http://terminology.hl7.org/CodeSystem/v3-ActCode",
        "code": "EMER",
        "display": "emergency",
        "userSelected": true
      },
      "type": [ {
        "coding": [ {
          "system": "http://snomed.info/sct",
          "code": "4525004"
        } ]
      } ],
      "subject": {
        "reference": "Patient/6129135502c62a011f2e752c"
      },
      "period": {
        "start": "2024-10-11T10:30:00.000+00:00",
        "end": "2024-10-11T11:30:00.000+00:00"
      },
      "length": {
        "value": 0.0,
        "unit": "days"
      }
    }
  }, {
    "fullUrl": "5ca4cde2b8484613a5552a68",
    "resource": {
      "resourceType": "Encounter",
      "id": "5ca4cde2b8484613a5552a68",
      "meta": {
        "profile": [ "http://hl7.org/fhir/us/qicore/StructureDefinition/qicore-encounter" ]
      },
      "status": "finished",
      "class": {
        "system": "http://terminology.hl7.org/CodeSystem/v3-ActCode",
        "code": "IMP",
        "display": "inpatient encounter",
        "userSelected": true
      },
      "type": [ {
        "coding": [ {
          "system": "http://snomed.info/sct",
          "code": "32485007"
        } ]
      } ],
      "subject": {
        "reference": "Patient/6129135502c62a011f2e752c"
      },
      "period": {
        "start": "2024-10-11T12:30:00.000+00:00",
        "end": "2024-10-13T11:30:00.000+00:00"
      },
      "length": {
        "value": 2.0,
        "unit": "days"
      },
      "diagnosis": [ {
        "condition": {
          "reference": "Condition/ischemic-stroke-7ef9"
        },
        "use": {
          "coding": [ {
            "system": "http://snomed.info/sct",
            "code": "111297002",
            "display": "Ischemic Stroke"
          } ]
        },
        "rank": 1
      } ]
    }
  }, {
    "fullUrl": "5ca4cde2b8484613a5552a65",
    "resource": {
      "resourceType": "ServiceRequest",
      "id": "5ca4cde2b8484613a5552a65",
      "meta": {
        "profile": [ "http://hl7.org/fhir/us/qicore/StructureDefinition/qicore-servicerequest" ]
      },
      "status": "active",
      "intent": "order",
      "code": {
        "coding": [ {
          "system": "http://snomed.info/sct",
          "code": "133918004"
        } ]
      },
      "subject": {
        "reference": "Patient/6129135502c62a011f2e752c"
      },
      "authoredOn": "2024-10-10T12:31:00.000+00:00"
    }
  }, {
    "fullUrl": "ischemic-stroke-7ef9",
    "resource": {
      "resourceType": "Condition",
      "id": "ischemic-stroke-7ef9",
      "meta": {
        "profile": [ "http://hl7.org/fhir/us/qicore/StructureDefinition/qicore-condition" ]
      },
      "clinicalStatus": {
        "coding": [ {
          "system": "http://terminology.hl7.org/CodeSystem/condition-clinical",
          "code": "active"
        } ]
      },
      "verificationStatus": {
        "coding": [ {
          "system": "http://terminology.hl7.org/CodeSystem/condition-ver-status",
          "code": "confirmed"
        } ]
      },
      "category": [ {
        "coding": [ {
          "system": "http://terminology.hl7.org/CodeSystem/condition-category",
          "code": "encounter-diagnosis",
          "display": "Encounter Diagnosis"
        } ]
      } ],
      "code": {
        "coding": [ {
          "system": "http://snomed.info/sct",
          "version": "2020-09",
          "code": "111297002",
          "display": "Nonparalytic stroke (disorder)",
          "userSelected": true
        } ]
      },
      "subject": {
        "reference": "Patient/6129135502c62a011f2e752c"
      },
      "recordedDate": "2024-07-14T08:00:00.000+00:00"
    }
  }, {
    "fullUrl": "http://coverage/1",
    "resource": {
      "resourceType": "Coverage",
      "id": "1",
      "meta": {
        "profile": [ "http://hl7.org/fhir/us/qicore/StructureDefinition/qicore-coverage" ]
      },
      "status": "active",
      "beneficiary": {
        "reference": "Patient/6129135502c62a011f2e752c"
      },
      "payor": [ {
        "reference": "Organization/123456"
      } ]
    }
  }, {
    "fullUrl": "http://Organization/123456",
    "resource": {
      "resourceType": "Organization",
      "id": "123456",
      "meta": {
        "profile": [ "http://hl7.org/fhir/us/qicore/StructureDefinition/qicore-organization" ]
      },
      "identifier": [ {
        "use": "temp",
        "system": "urn:oid:2.16.840.1.113883.4.4",
        "value": "21-3259825"
      } ],
      "active": true,
      "type": [ {
        "coding": [ {
          "system": "http://terminology.hl7.org/CodeSystem/organization-type",
          "code": "pay",
          "display": "Payer"
        } ]
      } ],
      "name": "Blue Cross Blue Shield of Texas",
      "telecom": [ {
        "system": "phone",
        "value": "(+1) 972-766-6900"
      } ],
      "address": [ {
        "use": "billing",
        "type": "postal",
        "line": [ "P.O. Box 660044" ],
        "city": "Dallas",
        "state": "TX",
        "postalCode": "75266-0044",
        "country": "USA"
      } ]
    }
  }, {
    "resource": {
      "resourceType": "MeasureReport",
      "id": "d9154f74-4767-4375-a5f7-9435b380bbab",
      "meta": {
        "profile": [ "http://hl7.org/fhir/us/cqfmeasures/StructureDefinition/test-case-cqfm" ]
      },
      "contained": [ {
        "resourceType": "Parameters",
        "id": "CMOdurDiffEDTestOccur-parameters",
        "parameter": [ {
          "name": "subject",
          "valueString": "6129135502c62a011f2e752c"
        } ]
      } ],
      "extension": [ {
        "url": "http://hl7.org/fhir/us/cqfmeasures/StructureDefinition/cqfm-inputParameters",
        "valueReference": {
          "reference": "#CMOdurDiffEDTestOccur-parameters"
        }
      }, {
        "url": "http://hl7.org/fhir/us/cqfmeasures/StructureDefinition/cqfm-testCaseDescription",
        "valueMarkdown": "Patient receives CMO during a different ED encounter.  Testing multiple  Encounter."
      } ],
      "modifierExtension": [ {
        "url": "http://hl7.org/fhir/us/cqfmeasures/StructureDefinition/cqfm-isTestCase",
        "valueBoolean": true
      } ],
      "status": "complete",
      "type": "individual",
      "measure": "http://ecqi.healthit.gov/ecqms/Measure/DischargedonAntithromboticTherapyFHIR",
      "period": {
        "start": "2024-01-01",
        "end": "2024-12-31"
      },
      "group": [ {
        "population": [ {
          "code": {
            "coding": [ {
              "system": "http://terminology.hl7.org/CodeSystem/measure-population",
              "code": "initial-population",
              "display": "Initial Population"
            } ]
          },
          "count": 1
        }, {
          "code": {
            "coding": [ {
              "system": "http://terminology.hl7.org/CodeSystem/measure-population",
              "code": "denominator",
              "display": "Denominator"
            } ]
          },
          "count": 1
        }, {
          "code": {
            "coding": [ {
              "system": "http://terminology.hl7.org/CodeSystem/measure-population",
              "code": "denominator-exclusion",
              "display": "Denominator Exclusion"
            } ]
          },
          "count": 0
        }, {
          "code": {
            "coding": [ {
              "system": "http://terminology.hl7.org/CodeSystem/measure-population",
              "code": "denominator-exception",
              "display": "Denominator Exception"
            } ]
          },
          "count": 0
        }, {
          "code": {
            "coding": [ {
              "system": "http://terminology.hl7.org/CodeSystem/measure-population",
              "code": "numerator",
              "display": "Numerator"
            } ]
          },
          "count": 0
        } ]
      } ],
      "evaluatedResource": [ {
        "reference": "Patient/6129135502c62a011f2e752c"
      }, {
        "reference": "Encounter/5ca4cde2b8484613a5552a66"
      }, {
        "reference": "Encounter/5ca4cde2b8484613a5552a67"
      }, {
        "reference": "Encounter/5ca4cde2b8484613a5552a68"
      }, {
        "reference": "ServiceRequest/5ca4cde2b8484613a5552a65"
      }, {
        "reference": "Condition/ischemic-stroke-7ef9"
      }, {
        "reference": "Coverage/1"
      }, {
        "reference": "Organization/123456"
      } ]
    }
  } ]
}