{"resourceType":"Bundle","id":"tests-74aab416-6a06-4fb8-8fbf-5df8012dd811-bundle","type":"transaction","entry":[{"resource":{"resourceType":"Bundle","id":"649980116735443b9ce85cd5","type":"collection","entry":[{"fullUrl":"https://madie.cms.gov/Patient/74aab416-6a06-4fb8-8fbf-5df8012dd811","resource":{"resourceType":"Patient","id":"74aab416-6a06-4fb8-8fbf-5df8012dd811","meta":{"profile":["http://hl7.org/fhir/us/qicore/StructureDefinition/qicore-patient"]},"extension":[{"url":"http://hl7.org/fhir/us/core/StructureDefinition/us-core-race","extension":[{"url":"ombCategory","valueCoding":{"system":"urn:oid:2.16.840.1.113883.6.238","code":"2054-5","display":"Black or African American","userSelected":true}},{"url":"text","valueString":"Black or African American"}]},{"url":"http://hl7.org/fhir/us/core/StructureDefinition/us-core-ethnicity","extension":[{"url":"ombCategory","valueCoding":{"system":"urn:oid:2.16.840.1.113883.6.238","code":"2135-2","display":"Hispanic or Latino","userSelected":true}},{"url":"text","valueString":"Hispanic or Latino"}]}],"identifier":[{"type":{"coding":[{"system":"http://terminology.hl7.org/CodeSystem/v2-0203","code":"MR"}]},"system":"https://bonnie-fhir.healthit.gov/","value":"649980116735443b9ce85cd5"}],"name":[{"family":"NumFail","given":["2VLTestsduringMPwithMostRecentResultOver"]}],"gender":"male","birthDate":"1986-05-25"}},{"fullUrl":"hiv-5cd6","resource":{"resourceType":"Condition","id":"hiv-5cd6","meta":{"profile":["http://hl7.org/fhir/us/qicore/StructureDefinition/qicore-condition"]},"category":[{"coding":[{"system":"http://terminology.hl7.org/CodeSystem/condition-category","code":"problem-list-item","display":"Problem List Item"}]}],"code":{"coding":[{"system":"http://hl7.org/fhir/sid/icd-9-cm","version":"2013","code":"042","display":"Human immunodeficiency virus [HIV] disease","userSelected":true},{"system":"http://snomed.info/sct","code":"165816005","userSelected":true}]},"subject":{"reference":"Patient/74aab416-6a06-4fb8-8fbf-5df8012dd811"},"onsetDateTime":"2023-01-01T12:00:00.000+00:00","recordedDate":"2023-01-01T12:00:00.000+00:00"}},{"fullUrl":"preventive-care-services-established-office-visit-18-and-up-5cd7","resource":{"resourceType":"Encounter","id":"preventive-care-services-established-office-visit-18-and-up-5cd7","meta":{"profile":["http://hl7.org/fhir/us/qicore/StructureDefinition/qicore-encounter"]},"status":"finished","class":{"system":"http://terminology.hl7.org/CodeSystem/v3-ActCode","code":"AMB","display":"ambulatory"},"type":[{"coding":[{"system":"http://www.ama-assn.org/go/cpt","version":"2023","code":"99395","display":"Periodic comprehensive preventive medicine reevaluation and management of an individual including an age and gender appropriate history, examination, counseling/anticipatory guidance/risk factor reduction interventions, and the ordering of laboratory/diagnostic procedures, established patient; 18-39 years","userSelected":true}]}],"subject":{"reference":"Patient/74aab416-6a06-4fb8-8fbf-5df8012dd811"},"period":{"start":"2024-01-01T11:00:00.000+00:00","end":"2024-01-01T11:22:00.000+00:00"}}},{"fullUrl":"hiv-viral-load-5cd8","resource":{"resourceType":"Observation","id":"hiv-viral-load-5cd8","meta":{"profile":["http://hl7.org/fhir/us/qicore/StructureDefinition/qicore-observation"]},"status":"final","category":[{"coding":[{"system":"http://terminology.hl7.org/CodeSystem/observation-category"}]}],"code":{"coding":[{"system":"http://loinc.org","version":"2.73","code":"10351-5","display":"HIV 1 RNA [Units/volume] (viral load) in Serum or Plasma by Probe with amplification","userSelected":true}]},"subject":{"reference":"Patient/74aab416-6a06-4fb8-8fbf-5df8012dd811"},"effectiveDateTime":"2024-01-01T07:59:00.000+00:00","issued":"2024-01-01T07:59:00.000+00:00","valueQuantity":{"value":199.0,"unit":"{copies}/mL"}}},{"fullUrl":"hiv-viral-load-5cd9","resource":{"resourceType":"Observation","id":"hiv-viral-load-5cd9","meta":{"profile":["http://hl7.org/fhir/us/qicore/StructureDefinition/qicore-observation"]},"status":"final","category":[{"coding":[{"system":"http://terminology.hl7.org/CodeSystem/observation-category"}]}],"code":{"coding":[{"system":"http://loinc.org","version":"2.73","code":"10351-5","display":"HIV 1 RNA [Units/volume] (viral load) in Serum or Plasma by Probe with amplification","userSelected":true}]},"subject":{"reference":"Patient/74aab416-6a06-4fb8-8fbf-5df8012dd811"},"effectiveDateTime":"2024-08-28T08:00:00.000+00:00","issued":"2024-08-28T08:00:00.000+00:00","valueQuantity":{"value":201.0,"unit":"{copies}/mL"}}},{"fullUrl":"http://coverage/1","resource":{"resourceType":"Coverage","id":"1","meta":{"profile":["http://hl7.org/fhir/us/qicore/StructureDefinition/qicore-coverage"]},"status":"active","beneficiary":{"reference":"Patient/74aab416-6a06-4fb8-8fbf-5df8012dd811"},"payor":[{"reference":"Organization/123456"}]}},{"fullUrl":"http://Organization/123456","resource":{"resourceType":"Organization","id":"123456","meta":{"profile":["http://hl7.org/fhir/us/qicore/StructureDefinition/qicore-organization"]},"identifier":[{"use":"temp","system":"urn:oid:2.16.840.1.113883.4.4","value":"21-3259825"}],"active":true,"type":[{"coding":[{"system":"http://terminology.hl7.org/CodeSystem/organization-type","code":"pay","display":"Payer"}]}],"name":"Blue Cross Blue Shield of Texas","telecom":[{"system":"phone","value":"(+1) 972-766-6900"}],"address":[{"use":"billing","type":"postal","line":["P.O. Box 660044"],"city":"Dallas","state":"TX","postalCode":"75266-0044","country":"USA"}]}},{"fullUrl":"http://Practitioner/123456","resource":{"resourceType":"Practitioner","id":"practitioner-123456","meta":{"profile":["http://hl7.org/fhir/us/qicore/StructureDefinition/qicore-practitioner"]},"identifier":[{"system":"http://hl7.org/fhir/sid/us-npi","value":"123456"}],"name":[{"family":"Evil","prefix":["Dr"]}]}},{"fullUrl":"https://madie.cms.gov/MeasureReport/64873a03be23a058642d5817/74aab416-6a06-4fb8-8fbf-5df8012dd811","resource":{"resourceType":"MeasureReport","id":"d7d98000-4f8b-4185-9200-f6f5b88a922d","meta":{"profile":["http://hl7.org/fhir/us/cqfmeasures/StructureDefinition/test-case-cqfm"]},"contained":[{"resourceType":"Parameters","id":"2VLTestsduringMPwithMostRecentResultOver-parameters","parameter":[{"name":"subject","valueString":"74aab416-6a06-4fb8-8fbf-5df8012dd811"}]}],"extension":[{"url":"http://hl7.org/fhir/us/cqfmeasures/StructureDefinition/cqfm-inputParameters","valueReference":{"reference":"#2VLTestsduringMPwithMostRecentResultOver-parameters"}},{"url":"http://hl7.org/fhir/us/cqfmeasures/StructureDefinition/cqfm-testCaseDescription","valueMarkdown":"Patient with a diagnosis of HIV Jan 1 of year prior to MP and a qualifying encounter on Jan 1 of the measurement period with TWO viral load tests - 1) Jan 1 with result < 200, 2) Aug 28 (240 days) > 200"}],"modifierExtension":[{"url":"http://hl7.org/fhir/us/cqfmeasures/StructureDefinition/cqfm-isTestCase","valueBoolean":true}],"status":"complete","type":"individual","measure":"http://ecqi.healthit.gov/ecqms/Measure/HIVViralSuppressionFHIR","period":{"start":"2024-01-01","end":"2024-12-31"},"group":[{"population":[{"code":{"coding":[{"system":"http://terminology.hl7.org/CodeSystem/measure-population","code":"initial-population","display":"Initial Population"}]},"count":1},{"code":{"coding":[{"system":"http://terminology.hl7.org/CodeSystem/measure-population","code":"denominator","display":"Denominator"}]},"count":1},{"code":{"coding":[{"system":"http://terminology.hl7.org/CodeSystem/measure-population","code":"numerator","display":"Numerator"}]},"count":0}]}],"evaluatedResource":[{"reference":"https://madie.cms.gov/Patient/74aab416-6a06-4fb8-8fbf-5df8012dd811"},{"reference":"Condition/hiv-5cd6"},{"reference":"Encounter/preventive-care-services-established-office-visit-18-and-up-5cd7"},{"reference":"Observation/hiv-viral-load-5cd8"},{"reference":"Observation/hiv-viral-load-5cd9"},{"reference":"Coverage/1"},{"reference":"Organization/123456"},{"reference":"Practitioner/practitioner-123456"}]}}]},"request":{"method":"PUT","url":"Bundle/649980116735443b9ce85cd5"}}]}