{"resourceType":"Bundle","id":"tests-1fe11eea-dd7a-48f6-84a6-6522de5c1745-bundle","type":"transaction","entry":[{"resource":{"resourceType":"Bundle","id":"6499b99df75cf8dae8f2f3df","type":"collection","entry":[{"fullUrl":"https://madie.cms.gov/Patient/1fe11eea-dd7a-48f6-84a6-6522de5c1745","resource":{"resourceType":"Patient","id":"1fe11eea-dd7a-48f6-84a6-6522de5c1745","meta":{"profile":["http://hl7.org/fhir/us/qicore/StructureDefinition/qicore-patient"]},"extension":[{"url":"http://hl7.org/fhir/us/core/StructureDefinition/us-core-race","extension":[{"url":"ombCategory","valueCoding":{"system":"urn:oid:2.16.840.1.113883.6.238","code":"2028-9","display":"Asian","userSelected":true}},{"url":"text","valueString":"Asian"}]},{"url":"http://hl7.org/fhir/us/core/StructureDefinition/us-core-ethnicity","extension":[{"url":"ombCategory","valueCoding":{"system":"urn:oid:2.16.840.1.113883.6.238","code":"2135-2","display":"Hispanic or Latino","userSelected":true}},{"url":"text","valueString":"Hispanic or Latino"}]}],"identifier":[{"type":{"coding":[{"system":"http://terminology.hl7.org/CodeSystem/v2-0203","code":"MR"}]},"system":"https://bonnie-fhir.healthit.gov/","value":"6499b99df75cf8dae8f2f3df"}],"name":[{"family":"NumPass","given":["TestDuringMPResultDRCBelowRelevantPeriod"]}],"gender":"male","birthDate":"1986-05-25"}},{"fullUrl":"hiv-f3e0","resource":{"resourceType":"Condition","id":"hiv-f3e0","meta":{"profile":["http://hl7.org/fhir/us/qicore/StructureDefinition/qicore-condition"]},"category":[{"coding":[{"system":"http://terminology.hl7.org/CodeSystem/condition-category","code":"problem-list-item","display":"Problem List Item"}]}],"code":{"coding":[{"system":"http://hl7.org/fhir/sid/icd-9-cm","version":"2013","code":"042","display":"Human immunodeficiency virus [HIV] disease","userSelected":true},{"system":"http://snomed.info/sct","code":"165816005","userSelected":true}]},"subject":{"reference":"Patient/1fe11eea-dd7a-48f6-84a6-6522de5c1745"},"onsetDateTime":"2019-12-02T12:00:00.000+00:00","recordedDate":"2019-12-02T12:00:00.000+00:00"}},{"fullUrl":"preventive-care-services-initial-office-visit-18-and-up-f3e1","resource":{"resourceType":"Encounter","id":"preventive-care-services-initial-office-visit-18-and-up-f3e1","meta":{"profile":["http://hl7.org/fhir/us/qicore/StructureDefinition/qicore-encounter"]},"status":"finished","class":{"system":"http://terminology.hl7.org/CodeSystem/v3-ActCode","code":"AMB","display":"ambulatory"},"type":[{"coding":[{"system":"http://www.ama-assn.org/go/cpt","code":"99386","userSelected":true}]}],"subject":{"reference":"Patient/1fe11eea-dd7a-48f6-84a6-6522de5c1745"},"period":{"start":"2024-08-27T15:02:00.000+00:00","end":"2024-08-27T15:55:00.000+00:00"}}},{"fullUrl":"hiv-viral-load-f3e2","resource":{"resourceType":"Observation","id":"hiv-viral-load-f3e2","meta":{"profile":["http://hl7.org/fhir/us/qicore/StructureDefinition/qicore-observation"]},"status":"final","category":[{"coding":[{"system":"http://terminology.hl7.org/CodeSystem/observation-category"}]}],"code":{"coding":[{"system":"http://loinc.org","version":"2.73","code":"10351-5","display":"HIV 1 RNA [Units/volume] (viral load) in Serum or Plasma by Probe with amplification","userSelected":true}]},"subject":{"reference":"Patient/1fe11eea-dd7a-48f6-84a6-6522de5c1745"},"effectiveDateTime":"2024-08-07T09:02:00.000+00:00","issued":"2024-08-07T09:02:00.000+00:00","valueCodeableConcept":{"coding":[{"system":"http://snomed.info/sct","code":"260988000","display":"Below threshold level (qualifier value)","userSelected":true}]}}},{"fullUrl":"http://coverage/1","resource":{"resourceType":"Coverage","id":"1","meta":{"profile":["http://hl7.org/fhir/us/qicore/StructureDefinition/qicore-coverage"]},"status":"active","beneficiary":{"reference":"Patient/1fe11eea-dd7a-48f6-84a6-6522de5c1745"},"payor":[{"reference":"Organization/123456"}]}},{"fullUrl":"http://Organization/123456","resource":{"resourceType":"Organization","id":"123456","meta":{"profile":["http://hl7.org/fhir/us/qicore/StructureDefinition/qicore-organization"]},"identifier":[{"use":"temp","system":"urn:oid:2.16.840.1.113883.4.4","value":"21-3259825"}],"active":true,"type":[{"coding":[{"system":"http://terminology.hl7.org/CodeSystem/organization-type","code":"pay","display":"Payer"}]}],"name":"Blue Cross Blue Shield of Texas","telecom":[{"system":"phone","value":"(+1) 972-766-6900"}],"address":[{"use":"billing","type":"postal","line":["P.O. Box 660044"],"city":"Dallas","state":"TX","postalCode":"75266-0044","country":"USA"}]}},{"fullUrl":"http://Practitioner/123456","resource":{"resourceType":"Practitioner","id":"practitioner-123456","meta":{"profile":["http://hl7.org/fhir/us/qicore/StructureDefinition/qicore-practitioner"]},"identifier":[{"system":"http://hl7.org/fhir/sid/us-npi","value":"123456"}],"name":[{"family":"Evil","prefix":["Dr"]}]}},{"fullUrl":"https://madie.cms.gov/MeasureReport/64873a03be23a058642d5817/1fe11eea-dd7a-48f6-84a6-6522de5c1745","resource":{"resourceType":"MeasureReport","id":"06d6f026-1d72-4f6c-ad25-571b126523ce","meta":{"profile":["http://hl7.org/fhir/us/cqfmeasures/StructureDefinition/test-case-cqfm"]},"contained":[{"resourceType":"Parameters","id":"TestDuringMPResultDRCBelowRelevantPeriod-parameters","parameter":[{"name":"subject","valueString":"1fe11eea-dd7a-48f6-84a6-6522de5c1745"}]}],"extension":[{"url":"http://hl7.org/fhir/us/cqfmeasures/StructureDefinition/cqfm-inputParameters","valueReference":{"reference":"#TestDuringMPResultDRCBelowRelevantPeriod-parameters"}},{"url":"http://hl7.org/fhir/us/cqfmeasures/StructureDefinition/cqfm-testCaseDescription","valueMarkdown":"Patient with a diagnosis of HIV 5 years ago and a qualifying encounter on Aug 27 during the measurement period  AND a viral load test during the MP with a result using DRC Below Threshold - using relevant period"}],"modifierExtension":[{"url":"http://hl7.org/fhir/us/cqfmeasures/StructureDefinition/cqfm-isTestCase","valueBoolean":true}],"status":"complete","type":"individual","measure":"http://ecqi.healthit.gov/ecqms/Measure/HIVViralSuppressionFHIR","period":{"start":"2024-01-01","end":"2024-12-31"},"group":[{"population":[{"code":{"coding":[{"system":"http://terminology.hl7.org/CodeSystem/measure-population","code":"initial-population","display":"Initial Population"}]},"count":1},{"code":{"coding":[{"system":"http://terminology.hl7.org/CodeSystem/measure-population","code":"denominator","display":"Denominator"}]},"count":1},{"code":{"coding":[{"system":"http://terminology.hl7.org/CodeSystem/measure-population","code":"numerator","display":"Numerator"}]},"count":1}]}],"evaluatedResource":[{"reference":"https://madie.cms.gov/Patient/1fe11eea-dd7a-48f6-84a6-6522de5c1745"},{"reference":"Condition/hiv-f3e0"},{"reference":"Encounter/preventive-care-services-initial-office-visit-18-and-up-f3e1"},{"reference":"Observation/hiv-viral-load-f3e2"},{"reference":"Coverage/1"},{"reference":"Organization/123456"},{"reference":"Practitioner/practitioner-123456"}]}}]},"request":{"method":"PUT","url":"Bundle/6499b99df75cf8dae8f2f3df"}}]}