{"resourceType":"Bundle","id":"tests-8a74f67d-482c-4cdd-8b71-71d1b14dd432-bundle","type":"transaction","entry":[{"resource":{"resourceType":"Bundle","id":"649994fdcea95c34d9e57777","type":"collection","entry":[{"fullUrl":"https://madie.cms.gov/Patient/8a74f67d-482c-4cdd-8b71-71d1b14dd432","resource":{"resourceType":"Patient","id":"8a74f67d-482c-4cdd-8b71-71d1b14dd432","meta":{"profile":["http://hl7.org/fhir/us/qicore/StructureDefinition/qicore-patient"]},"extension":[{"url":"http://hl7.org/fhir/us/core/StructureDefinition/us-core-race","extension":[{"url":"ombCategory","valueCoding":{"system":"urn:oid:2.16.840.1.113883.6.238","code":"2106-3","display":"White"}},{"url":"text","valueString":"White"}]},{"url":"http://hl7.org/fhir/us/core/StructureDefinition/us-core-ethnicity","extension":[{"url":"ombCategory","valueCoding":{"system":"urn:oid:2.16.840.1.113883.6.238","code":"2186-5","display":"Not Hispanic or Latino","userSelected":true}},{"url":"text","valueString":"Not Hispanic or Latino"}]}],"identifier":[{"type":{"coding":[{"system":"http://terminology.hl7.org/CodeSystem/v2-0203","code":"MR"}]},"system":"https://bonnie-fhir.healthit.gov/","value":"649994fdcea95c34d9e57777"}],"name":[{"family":"NumPass","given":["2TestsduringMP1ResultUnder1NotDetected"]}],"gender":"female","birthDate":"1986-05-25"}},{"fullUrl":"preventive-care-services-initial-office-visit-0-to-17-7778","resource":{"resourceType":"Encounter","id":"preventive-care-services-initial-office-visit-0-to-17-7778","meta":{"profile":["http://hl7.org/fhir/us/qicore/StructureDefinition/qicore-encounter"]},"status":"finished","class":{"system":"http://terminology.hl7.org/CodeSystem/v3-ActCode","code":"AMB","display":"ambulatory"},"type":[{"coding":[{"system":"http://www.ama-assn.org/go/cpt","version":"2023","code":"99381","display":"Initial comprehensive preventive medicine evaluation and management of an individual including an age and gender appropriate history, examination, counseling/anticipatory guidance/risk factor reduction interventions, and the ordering of laboratory/diagnostic procedures, new patient; infant (age younger than 1 year)","userSelected":true}]}],"subject":{"reference":"Patient/8a74f67d-482c-4cdd-8b71-71d1b14dd432"},"period":{"start":"2024-03-07T10:00:00.000+00:00","end":"2024-03-07T10:30:00.000+00:00"}}},{"fullUrl":"hiv-7779","resource":{"resourceType":"Condition","id":"hiv-7779","meta":{"profile":["http://hl7.org/fhir/us/qicore/StructureDefinition/qicore-condition"]},"category":[{"coding":[{"system":"http://terminology.hl7.org/CodeSystem/condition-category","code":"problem-list-item","display":"Problem List Item"}]}],"code":{"coding":[{"system":"http://hl7.org/fhir/sid/icd-9-cm","version":"2013","code":"042","display":"Human immunodeficiency virus [HIV] disease","userSelected":true},{"system":"http://snomed.info/sct","code":"165816005","userSelected":true}]},"subject":{"reference":"Patient/8a74f67d-482c-4cdd-8b71-71d1b14dd432"},"onsetDateTime":"2019-12-02T12:00:00.000+00:00","recordedDate":"2019-12-02T12:00:00.000+00:00"}},{"fullUrl":"hiv-viral-load-777a","resource":{"resourceType":"Observation","id":"hiv-viral-load-777a","meta":{"profile":["http://hl7.org/fhir/us/qicore/StructureDefinition/qicore-observation"]},"status":"final","category":[{"coding":[{"system":"http://terminology.hl7.org/CodeSystem/observation-category"}]}],"code":{"coding":[{"system":"http://loinc.org","version":"2.73","code":"10351-5","display":"HIV 1 RNA [Units/volume] (viral load) in Serum or Plasma by Probe with amplification","userSelected":true}]},"subject":{"reference":"Patient/8a74f67d-482c-4cdd-8b71-71d1b14dd432"},"effectiveDateTime":"2024-03-07T08:00:00.000+00:00","issued":"2024-03-07T08:00:00.000+00:00","valueQuantity":{"value":145.0,"unit":"{copies}/mL"}}},{"fullUrl":"hiv-viral-load-777b","resource":{"resourceType":"Observation","id":"hiv-viral-load-777b","meta":{"profile":["http://hl7.org/fhir/us/qicore/StructureDefinition/qicore-observation"]},"status":"final","category":[{"coding":[{"system":"http://terminology.hl7.org/CodeSystem/observation-category"}]}],"code":{"coding":[{"system":"http://loinc.org","version":"2.73","code":"10351-5","display":"HIV 1 RNA [Units/volume] (viral load) in Serum or Plasma by Probe with amplification","userSelected":true}]},"subject":{"reference":"Patient/8a74f67d-482c-4cdd-8b71-71d1b14dd432"},"effectiveDateTime":"2024-12-31T08:02:00.000+00:00","issued":"2024-12-31T08:02:00.000+00:00","valueCodeableConcept":{"coding":[{"system":"http://snomed.info/sct","code":"260415000","display":"Not detected (qualifier value)","userSelected":true}]}}},{"fullUrl":"http://coverage/1","resource":{"resourceType":"Coverage","id":"1","meta":{"profile":["http://hl7.org/fhir/us/qicore/StructureDefinition/qicore-coverage"]},"status":"active","beneficiary":{"reference":"Patient/8a74f67d-482c-4cdd-8b71-71d1b14dd432"},"payor":[{"reference":"Organization/123456"}]}},{"fullUrl":"http://Organization/123456","resource":{"resourceType":"Organization","id":"123456","meta":{"profile":["http://hl7.org/fhir/us/qicore/StructureDefinition/qicore-organization"]},"identifier":[{"use":"temp","system":"urn:oid:2.16.840.1.113883.4.4","value":"21-3259825"}],"active":true,"type":[{"coding":[{"system":"http://terminology.hl7.org/CodeSystem/organization-type","code":"pay","display":"Payer"}]}],"name":"Blue Cross Blue Shield of Texas","telecom":[{"system":"phone","value":"(+1) 972-766-6900"}],"address":[{"use":"billing","type":"postal","line":["P.O. Box 660044"],"city":"Dallas","state":"TX","postalCode":"75266-0044","country":"USA"}]}},{"fullUrl":"http://Practitioner/123456","resource":{"resourceType":"Practitioner","id":"practitioner-123456","meta":{"profile":["http://hl7.org/fhir/us/qicore/StructureDefinition/qicore-practitioner"]},"identifier":[{"system":"http://hl7.org/fhir/sid/us-npi","value":"123456"}],"name":[{"family":"Evil","prefix":["Dr"]}]}},{"fullUrl":"https://madie.cms.gov/MeasureReport/64873a03be23a058642d5817/8a74f67d-482c-4cdd-8b71-71d1b14dd432","resource":{"resourceType":"MeasureReport","id":"d1354a95-66b4-463a-a7c0-fc915343b3cd","meta":{"profile":["http://hl7.org/fhir/us/cqfmeasures/StructureDefinition/test-case-cqfm"]},"contained":[{"resourceType":"Parameters","id":"2TestsduringMP1ResultUnder1NotDetected-parameters","parameter":[{"name":"subject","valueString":"8a74f67d-482c-4cdd-8b71-71d1b14dd432"}]}],"extension":[{"url":"http://hl7.org/fhir/us/cqfmeasures/StructureDefinition/cqfm-inputParameters","valueReference":{"reference":"#2TestsduringMP1ResultUnder1NotDetected-parameters"}},{"url":"http://hl7.org/fhir/us/cqfmeasures/StructureDefinition/cqfm-testCaseDescription","valueMarkdown":"Patient with a diagnosis of HIV 5 years ago and a qualifying encounter during the measurement period  with 2 tests during the MP,  with 1 under and 1 not detected "}],"modifierExtension":[{"url":"http://hl7.org/fhir/us/cqfmeasures/StructureDefinition/cqfm-isTestCase","valueBoolean":true}],"status":"complete","type":"individual","measure":"http://ecqi.healthit.gov/ecqms/Measure/HIVViralSuppressionFHIR","period":{"start":"2024-01-01","end":"2024-12-31"},"group":[{"population":[{"code":{"coding":[{"system":"http://terminology.hl7.org/CodeSystem/measure-population","code":"initial-population","display":"Initial Population"}]},"count":1},{"code":{"coding":[{"system":"http://terminology.hl7.org/CodeSystem/measure-population","code":"denominator","display":"Denominator"}]},"count":1},{"code":{"coding":[{"system":"http://terminology.hl7.org/CodeSystem/measure-population","code":"numerator","display":"Numerator"}]},"count":1}]}],"evaluatedResource":[{"reference":"https://madie.cms.gov/Patient/8a74f67d-482c-4cdd-8b71-71d1b14dd432"},{"reference":"Encounter/preventive-care-services-initial-office-visit-0-to-17-7778"},{"reference":"Condition/hiv-7779"},{"reference":"Observation/hiv-viral-load-777a"},{"reference":"Observation/hiv-viral-load-777b"},{"reference":"Coverage/1"},{"reference":"Organization/123456"},{"reference":"Practitioner/practitioner-123456"}]}}]},"request":{"method":"PUT","url":"Bundle/649994fdcea95c34d9e57777"}}]}