{"resourceType":"Bundle","id":"tests-Patient-5-bundle","type":"transaction","entry":[{"resource":{"resourceType":"Bundle","id":"Patient-5-NUMERPass-SBP139DBP89DuringMP","type":"transaction","entry":[{"resource":{"resourceType":"Patient","id":"Patient-5","meta":{"profile":["http://hl7.org/fhir/us/core/StructureDefinition/us-core-patient"]},"extension":[{"url":"http://hl7.org/fhir/us/core/StructureDefinition/us-core-race","extension":[{"url":"ombCategory","valueCoding":{"system":"urn:oid:2.16.840.1.113883.6.238","code":"2028-9","display":"Asian"}}]},{"url":"http://hl7.org/fhir/us/core/StructureDefinition/us-core-ethnicity","extension":[{"url":"ombCategory","valueCoding":{"system":"urn:oid:2.16.840.1.113883.6.238","code":"2135-2","display":"Hispanic or Latino"}}]}],"identifier":[{"system":"http://hospital.smarthealthit.org","value":"999999995"}],"name":[{"family":"Bertha","given":["Betty"]}],"gender":"female","birthDate":"2005-12-31"}},{"resource":{"resourceType":"Encounter","id":"Encounter-5","status":"finished","class":{"system":"http://terminology.hl7.org/CodeSystem/v3-ActCode","code":"AMB","display":"ambulatory"},"type":[{"coding":[{"system":"http://snomed.info/sct","code":"3391000175108","display":"Office visit for pediatric care and assessment (procedure)"}]}],"subject":{"reference":"Patient/Patient-5"},"period":{"start":"2023-01-01T00:00:00.000Z","end":"2023-01-01T01:00:00.000Z"}}},{"resource":{"resourceType":"Condition","id":"Condition-5","clinicalStatus":{"coding":[{"system":"http://terminology.hl7.org/CodeSystem/condition-clinical","code":"active"}]},"code":{"coding":[{"system":"http://snomed.info/sct","code":"371125006","display":"Labile essential hypertension (disorder)"}]},"subject":{"reference":"Patient/Patient-5"},"onsetDateTime":"2023-06-30T23:59:59.000Z"}},{"resource":{"resourceType":"Observation","id":"Observation-5","meta":{"profile":["http://hl7.org/fhir/StructureDefinition/vitalsigns"]},"status":"final","category":[{"coding":[{"system":"http://terminology.hl7.org/CodeSystem/observation-category","code":"vital-signs"}]}],"code":{"coding":[{"system":"http://loinc.org","code":"85354-9","display":"Blood pressure panel with all children optional"}]},"subject":{"reference":"Patient/Patient-5"},"encounter":{"reference":"Encounter/Encounter-5-1"},"effectiveDateTime":"2023-01-01T00:00:00.000Z","component":[{"code":{"coding":[{"system":"http://loinc.org","code":"8480-6","display":"Systolic blood pressure"}]},"valueQuantity":{"value":139,"unit":"mmHg","system":"http://unitsofmeasure.org","code":"mm[Hg]"}},{"code":{"coding":[{"system":"http://loinc.org","code":"8462-4","display":"Diastolic blood pressure"}]},"valueQuantity":{"value":89,"unit":"mmHg","system":"http://unitsofmeasure.org","code":"mm[Hg]"}}]}},{"resource":{"resourceType":"Encounter","id":"Encounter-5-1","status":"finished","class":{"system":"http://terminology.hl7.org/CodeSystem/v3-ActCode","code":"AMB","display":"ambulatory"},"subject":{"reference":"Patient/Patient-5"},"period":{"start":"2023-01-01T00:00:00.000Z","end":"2023-01-01T01:00:00.000Z"}}}]},"request":{"method":"PUT","url":"Bundle/Patient-5-NUMERPass-SBP139DBP89DuringMP"}}]}