{"resourceType":"Bundle","id":"tests-f7265a2f-e063-4c13-82fe-0e356ba61689-bundle","type":"transaction","entry":[{"resource":{"resourceType":"Bundle","id":"610965b898086b538055c148","type":"collection","entry":[{"fullUrl":"https://madie.cms.gov/Patient/f7265a2f-e063-4c13-82fe-0e356ba61689","resource":{"resourceType":"Patient","id":"f7265a2f-e063-4c13-82fe-0e356ba61689","meta":{"profile":["http://hl7.org/fhir/us/qicore/StructureDefinition/qicore-patient"]},"text":{"status":"generated","div":"<div xmlns=\"http://www.w3.org/1999/xhtml\"><div class=\"hapiHeaderText\">HIVDxStartsBeforeMP <b>DENEXPASS </b></div><table class=\"hapiPropertyTable\"><tbody><tr><td>Identifier</td><td>2e018364c6429d86aa80f683de5e74e7a50fffb7aca212439727c6b1a84ba85b</td></tr><tr><td>Date of birth</td><td><span>31 July 1992</span></td></tr></tbody></table></div>"},"extension":[{"url":"http://hl7.org/fhir/us/core/StructureDefinition/us-core-race","extension":[{"url":"ombCategory","valueCoding":{"system":"urn:oid:2.16.840.1.113883.6.238","code":"2076-8","display":"Native Hawaiian or Other Pacific Islander","userSelected":true}},{"url":"text","valueString":"Native Hawaiian or Other Pacific Islander"}]},{"url":"http://hl7.org/fhir/us/core/StructureDefinition/us-core-ethnicity","extension":[{"url":"ombCategory","valueCoding":{"system":"urn:oid:2.16.840.1.113883.6.238","code":"2135-2","display":"Hispanic or Latino","userSelected":true}},{"url":"text","valueString":"Hispanic or Latino"}]}],"identifier":[{"type":{"coding":[{"system":"http://terminology.hl7.org/CodeSystem/v2-0203","code":"MR"}]},"system":"https://bonnie-fhir.healthit.gov/","value":"610965b898086b538055c148"}],"active":true,"name":[{"use":"usual","family":"DENEXPass","given":["HIVDxStartsBeforeMP"]}],"gender":"male","birthDate":"1993-07-31"}},{"fullUrl":"5c9e578cb8484602c2f92222","resource":{"resourceType":"Encounter","id":"5c9e578cb8484602c2f92222","meta":{"profile":["http://hl7.org/fhir/us/qicore/StructureDefinition/qicore-encounter"]},"status":"finished","class":{"system":"http://terminology.hl7.org/CodeSystem/v3-ActCode","code":"AMB","display":"ambulatory","userSelected":true},"type":[{"coding":[{"system":"http://www.ama-assn.org/go/cpt","code":"99385"}]}],"subject":{"reference":"Patient/f7265a2f-e063-4c13-82fe-0e356ba61689"},"period":{"start":"2024-10-24T08:00:00.000+00:00","end":"2024-10-24T08:15:00.000+00:00"}}},{"fullUrl":"hiv-fea6","resource":{"resourceType":"Condition","id":"hiv-fea6","meta":{"profile":["http://hl7.org/fhir/us/qicore/StructureDefinition/qicore-condition"]},"clinicalStatus":{"coding":[{"system":"http://terminology.hl7.org/CodeSystem/condition-clinical","code":"active","display":"active","userSelected":true}]},"category":[{"coding":[{"system":"http://terminology.hl7.org/CodeSystem/condition-category","code":"encounter-diagnosis","display":"Encounter Diagnosis","userSelected":true}]}],"code":{"coding":[{"system":"http://snomed.info/sct","code":"165816005","userSelected":true}]},"subject":{"reference":"Patient/f7265a2f-e063-4c13-82fe-0e356ba61689"},"onsetDateTime":"2012-03-29T08:00:00.000+00:00"}},{"fullUrl":"https://madie.cms.gov/MeasureReport/6385057e4ba3d47c885c02cd/f7265a2f-e063-4c13-82fe-0e356ba61689","resource":{"resourceType":"MeasureReport","id":"26ac5c56-271e-4b91-a452-17e7091cf869","meta":{"profile":["http://hl7.org/fhir/us/cqfmeasures/StructureDefinition/test-case-cqfm"]},"contained":[{"resourceType":"Parameters","id":"HIVDxStartsBeforeMP -parameters","parameter":[{"name":"subject","valueString":"f7265a2f-e063-4c13-82fe-0e356ba61689"}]}],"extension":[{"url":"http://hl7.org/fhir/us/cqfmeasures/StructureDefinition/cqfm-inputParameters","valueReference":{"reference":"#HIVDxStartsBeforeMP -parameters"}},{"url":"http://hl7.org/fhir/us/cqfmeasures/StructureDefinition/cqfm-testCaseDescription","valueMarkdown":"Patient 31 at start of MP, qualifying encounter during MP, HIV diagnosis starts before MP. and does not end (active)"}],"modifierExtension":[{"url":"http://hl7.org/fhir/us/cqfmeasures/StructureDefinition/cqfm-isTestCase","valueBoolean":true}],"status":"complete","type":"individual","measure":"http://ecqi.healthit.gov/ecqms/Measure/HIVScreeningFHIR","period":{"start":"2024-01-01","end":"2024-12-31"},"group":[{"population":[{"code":{"coding":[{"system":"http://terminology.hl7.org/CodeSystem/measure-population","code":"initial-population","display":"Initial Population"}]},"count":1},{"code":{"coding":[{"system":"http://terminology.hl7.org/CodeSystem/measure-population","code":"denominator","display":"Denominator"}]},"count":1},{"code":{"coding":[{"system":"http://terminology.hl7.org/CodeSystem/measure-population","code":"denominator-exclusion","display":"Denominator Exclusion"}]},"count":1},{"code":{"coding":[{"system":"http://terminology.hl7.org/CodeSystem/measure-population","code":"numerator","display":"Numerator"}]},"count":0}]}],"evaluatedResource":[{"reference":"https://madie.cms.gov/Patient/f7265a2f-e063-4c13-82fe-0e356ba61689"},{"reference":"Encounter/5c9e578cb8484602c2f92222"},{"reference":"Condition/hiv-fea6"}]}}]},"request":{"method":"PUT","url":"Bundle/610965b898086b538055c148"}}]}