{"resourceType":"Bundle","id":"tests-aeec70c8-0299-473e-9bec-dec37f70c079-bundle","type":"transaction","entry":[{"resource":{"resourceType":"Bundle","id":"60eda3c80edfe2d9c328006e","type":"collection","entry":[{"fullUrl":"https://madie.cms.gov/Patient/aeec70c8-0299-473e-9bec-dec37f70c079","resource":{"resourceType":"Patient","id":"aeec70c8-0299-473e-9bec-dec37f70c079","meta":{"profile":["http://hl7.org/fhir/us/qicore/StructureDefinition/qicore-patient"]},"extension":[{"url":"http://hl7.org/fhir/us/core/StructureDefinition/us-core-race","extension":[{"url":"ombCategory","valueCoding":{"system":"urn:oid:2.16.840.1.113883.6.238","code":"1002-5","display":"American Indian or Alaska Native","userSelected":true}},{"url":"text","valueString":"American Indian or Alaska Native"}]},{"url":"http://hl7.org/fhir/us/core/StructureDefinition/us-core-ethnicity","extension":[{"url":"ombCategory","valueCoding":{"system":"urn:oid:2.16.840.1.113883.6.238","code":"2135-2","display":"Hispanic or Latino","userSelected":true}},{"url":"text","valueString":"Hispanic or Latino"}]}],"identifier":[{"type":{"coding":[{"system":"http://terminology.hl7.org/CodeSystem/v2-0203","code":"MR"}]},"system":"https://bonnie-fhir.healthit.gov/","value":"60eda3c80edfe2d9c328006e"}],"name":[{"family":"IPPFail","given":["Age65Dec31"]}],"gender":"female","birthDate":"1958-01-01"}},{"fullUrl":"office-visit-006f","resource":{"resourceType":"Encounter","id":"office-visit-006f","meta":{"profile":["http://hl7.org/fhir/us/qicore/StructureDefinition/qicore-encounter"]},"status":"finished","class":{"system":"http://terminology.hl7.org/CodeSystem/v3-ActCode","code":"AMB","display":"ambulatory","userSelected":true},"type":[{"coding":[{"system":"http://snomed.info/sct","version":"2020-09","code":"185463005","display":"Visit out of hours (procedure)","userSelected":true}]}],"subject":{"reference":"Patient/aeec70c8-0299-473e-9bec-dec37f70c079"},"period":{"start":"2024-04-04T08:00:00.000+00:00","end":"2024-04-04T08:15:00.000+00:00"}}},{"fullUrl":"https://madie.cms.gov/MeasureReport/6385057e4ba3d47c885c02cd/aeec70c8-0299-473e-9bec-dec37f70c079","resource":{"resourceType":"MeasureReport","id":"b8887346-5486-48c5-b8de-5348a742045c","meta":{"profile":["http://hl7.org/fhir/us/cqfmeasures/StructureDefinition/test-case-cqfm"]},"contained":[{"resourceType":"Parameters","id":"Age65Dec31-parameters","parameter":[{"name":"subject","valueString":"aeec70c8-0299-473e-9bec-dec37f70c079"}]}],"extension":[{"url":"http://hl7.org/fhir/us/cqfmeasures/StructureDefinition/cqfm-inputParameters","valueReference":{"reference":"#Age65Dec31-parameters"}},{"url":"http://hl7.org/fhir/us/cqfmeasures/StructureDefinition/cqfm-testCaseDescription","valueMarkdown":"Patient is 65 on 12/31/2023 - turns 66 on start of MP"}],"modifierExtension":[{"url":"http://hl7.org/fhir/us/cqfmeasures/StructureDefinition/cqfm-isTestCase","valueBoolean":true}],"status":"complete","type":"individual","measure":"http://ecqi.healthit.gov/ecqms/Measure/HIVScreeningFHIR","period":{"start":"2024-01-01","end":"2024-12-31"},"group":[{"population":[{"code":{"coding":[{"system":"http://terminology.hl7.org/CodeSystem/measure-population","code":"initial-population","display":"Initial Population"}]},"count":0},{"code":{"coding":[{"system":"http://terminology.hl7.org/CodeSystem/measure-population","code":"denominator","display":"Denominator"}]},"count":0},{"code":{"coding":[{"system":"http://terminology.hl7.org/CodeSystem/measure-population","code":"denominator-exclusion","display":"Denominator Exclusion"}]},"count":0},{"code":{"coding":[{"system":"http://terminology.hl7.org/CodeSystem/measure-population","code":"numerator","display":"Numerator"}]},"count":0}]}],"evaluatedResource":[{"reference":"https://madie.cms.gov/Patient/aeec70c8-0299-473e-9bec-dec37f70c079"},{"reference":"Encounter/office-visit-006f"}]}}]},"request":{"method":"PUT","url":"Bundle/60eda3c80edfe2d9c328006e"}}]}