{"resourceType":"Bundle","id":"tests-5516ccc0-3773-4fdc-bb70-97733373e040-bundle","type":"transaction","entry":[{"resource":{"resourceType":"Bundle","id":"610965b898086b538055c144","type":"collection","entry":[{"fullUrl":"https://madie.cms.gov/Patient/5516ccc0-3773-4fdc-bb70-97733373e040","resource":{"resourceType":"Patient","id":"5516ccc0-3773-4fdc-bb70-97733373e040","meta":{"profile":["http://hl7.org/fhir/us/qicore/StructureDefinition/qicore-patient"]},"text":{"status":"generated","div":"<div xmlns=\"http://www.w3.org/1999/xhtml\"><div class=\"hapiHeaderText\">InvalidEncounter <b>IPPFAIL </b></div><table class=\"hapiPropertyTable\"><tbody><tr><td>Identifier</td><td>0e398bdf5fcf08275dc64ef8442ca6da4a80d2fb9d19a256f444dcf9f785ba41</td></tr><tr><td>Date of birth</td><td><span>31 July 1992</span></td></tr></tbody></table></div>"},"extension":[{"url":"http://hl7.org/fhir/us/core/StructureDefinition/us-core-race","extension":[{"url":"ombCategory","valueCoding":{"system":"urn:oid:2.16.840.1.113883.6.238","code":"1002-5","display":"American Indian or Alaska Native","userSelected":true}},{"url":"text","valueString":"American Indian or Alaska Native"}]},{"url":"http://hl7.org/fhir/us/core/StructureDefinition/us-core-ethnicity","extension":[{"url":"ombCategory","valueCoding":{"system":"urn:oid:2.16.840.1.113883.6.238","code":"2135-2","display":"Hispanic or Latino","userSelected":true}},{"url":"text","valueString":"Hispanic or Latino"}]}],"identifier":[{"type":{"coding":[{"system":"http://terminology.hl7.org/CodeSystem/v2-0203","code":"MR"}]},"system":"https://bonnie-fhir.healthit.gov/","value":"610965b898086b538055c144"}],"active":true,"name":[{"use":"usual","family":"IPPFail","given":["InvalidEncounter"]}],"gender":"female","birthDate":"1993-07-31"}},{"fullUrl":"5e595fa69ec84a00005db61e","resource":{"resourceType":"Encounter","id":"5e595fa69ec84a00005db61e","meta":{"profile":["http://hl7.org/fhir/us/qicore/StructureDefinition/qicore-encounter"]},"status":"finished","class":{"system":"http://terminology.hl7.org/CodeSystem/v3-ActCode","code":"AMB","display":"ambulatory","userSelected":true},"type":[{"coding":[{"system":"http://www.ama-assn.org/go/cpt","code":"99835"}]}],"subject":{"reference":"Patient/5516ccc0-3773-4fdc-bb70-97733373e040"},"period":{"start":"2024-10-24T08:00:00.000+00:00","end":"2024-10-24T08:15:00.000+00:00"}}},{"fullUrl":"https://madie.cms.gov/MeasureReport/6385057e4ba3d47c885c02cd/5516ccc0-3773-4fdc-bb70-97733373e040","resource":{"resourceType":"MeasureReport","id":"e7dc4b69-fe43-4813-971e-61ad28702b2b","meta":{"profile":["http://hl7.org/fhir/us/cqfmeasures/StructureDefinition/test-case-cqfm"]},"contained":[{"resourceType":"Parameters","id":"InvalidEncounter-parameters","parameter":[{"name":"subject","valueString":"5516ccc0-3773-4fdc-bb70-97733373e040"}]}],"extension":[{"url":"http://hl7.org/fhir/us/cqfmeasures/StructureDefinition/cqfm-inputParameters","valueReference":{"reference":"#InvalidEncounter-parameters"}},{"url":"http://hl7.org/fhir/us/cqfmeasures/StructureDefinition/cqfm-testCaseDescription","valueMarkdown":"Patient qualifies by age but does not have qualifying encounter in measurement period."}],"modifierExtension":[{"url":"http://hl7.org/fhir/us/cqfmeasures/StructureDefinition/cqfm-isTestCase","valueBoolean":true}],"status":"complete","type":"individual","measure":"http://ecqi.healthit.gov/ecqms/Measure/HIVScreeningFHIR","period":{"start":"2024-01-01","end":"2024-12-31"},"group":[{"population":[{"code":{"coding":[{"system":"http://terminology.hl7.org/CodeSystem/measure-population","code":"initial-population","display":"Initial Population"}]},"count":0},{"code":{"coding":[{"system":"http://terminology.hl7.org/CodeSystem/measure-population","code":"denominator","display":"Denominator"}]},"count":0},{"code":{"coding":[{"system":"http://terminology.hl7.org/CodeSystem/measure-population","code":"denominator-exclusion","display":"Denominator Exclusion"}]},"count":0},{"code":{"coding":[{"system":"http://terminology.hl7.org/CodeSystem/measure-population","code":"numerator","display":"Numerator"}]},"count":0}]}],"evaluatedResource":[{"reference":"https://madie.cms.gov/Patient/5516ccc0-3773-4fdc-bb70-97733373e040"},{"reference":"Encounter/5e595fa69ec84a00005db61e"}]}}]},"request":{"method":"PUT","url":"Bundle/610965b898086b538055c144"}}]}