{"resourceType":"Bundle","id":"tests-29181d46-2dc5-4aeb-a24e-c27692e345dc-bundle","type":"transaction","entry":[{"resource":{"resourceType":"Bundle","id":"610965b898086b538055c14c","type":"collection","entry":[{"fullUrl":"https://madie.cms.gov/Patient/29181d46-2dc5-4aeb-a24e-c27692e345dc","resource":{"resourceType":"Patient","id":"29181d46-2dc5-4aeb-a24e-c27692e345dc","meta":{"profile":["http://hl7.org/fhir/us/qicore/StructureDefinition/qicore-patient"]},"text":{"status":"generated","div":"<div xmlns=\"http://www.w3.org/1999/xhtml\"><div class=\"hapiHeaderText\">EncOverlapsMPEnd <b>IPPFAIL </b></div><table class=\"hapiPropertyTable\"><tbody><tr><td>Identifier</td><td>fc7ee32c47e386a4be9d29feaa05e1a314dab3fb336710140e496f897a5de6a9</td></tr><tr><td>Date of birth</td><td><span>31 July 1992</span></td></tr></tbody></table></div>"},"extension":[{"url":"http://hl7.org/fhir/us/core/StructureDefinition/us-core-race","extension":[{"url":"ombCategory","valueCoding":{"system":"urn:oid:2.16.840.1.113883.6.238","code":"1002-5","display":"American Indian or Alaska Native","userSelected":true}},{"url":"text","valueString":"American Indian or Alaska Native"}]},{"url":"http://hl7.org/fhir/us/core/StructureDefinition/us-core-ethnicity","extension":[{"url":"ombCategory","valueCoding":{"system":"urn:oid:2.16.840.1.113883.6.238","code":"2135-2","display":"Hispanic or Latino","userSelected":true}},{"url":"text","valueString":"Hispanic or Latino"}]}],"identifier":[{"type":{"coding":[{"system":"http://terminology.hl7.org/CodeSystem/v2-0203","code":"MR"}]},"system":"https://bonnie-fhir.healthit.gov/","value":"610965b898086b538055c14c"}],"active":true,"name":[{"use":"usual","family":"IPPFail","given":["EncOverlapsMPEnd"]}],"gender":"female","birthDate":"1993-07-31"}},{"fullUrl":"5c9e578cb8484602c2f92232","resource":{"resourceType":"Encounter","id":"5c9e578cb8484602c2f92232","meta":{"profile":["http://hl7.org/fhir/us/qicore/StructureDefinition/qicore-encounter"]},"status":"finished","class":{"system":"http://terminology.hl7.org/CodeSystem/v3-ActCode","code":"AMB","display":"ambulatory","userSelected":true},"type":[{"coding":[{"system":"http://www.ama-assn.org/go/cpt","code":"99395"}]}],"subject":{"reference":"Patient/29181d46-2dc5-4aeb-a24e-c27692e345dc"},"period":{"start":"2023-10-24T08:00:00.000+00:00","end":"2024-01-01T00:00:00.000+00:00"}}},{"fullUrl":"https://madie.cms.gov/MeasureReport/6385057e4ba3d47c885c02cd/29181d46-2dc5-4aeb-a24e-c27692e345dc","resource":{"resourceType":"MeasureReport","id":"58fa193d-5706-4c51-aa64-8aff6c2ad38f","meta":{"profile":["http://hl7.org/fhir/us/cqfmeasures/StructureDefinition/test-case-cqfm"]},"contained":[{"resourceType":"Parameters","id":"EncOverlapsMPEnd-parameters","parameter":[{"name":"subject","valueString":"29181d46-2dc5-4aeb-a24e-c27692e345dc"}]}],"extension":[{"url":"http://hl7.org/fhir/us/cqfmeasures/StructureDefinition/cqfm-inputParameters","valueReference":{"reference":"#EncOverlapsMPEnd-parameters"}},{"url":"http://hl7.org/fhir/us/cqfmeasures/StructureDefinition/cqfm-testCaseDescription","valueMarkdown":"Patient qualifies by age but encounter overlaps measurement period end."}],"modifierExtension":[{"url":"http://hl7.org/fhir/us/cqfmeasures/StructureDefinition/cqfm-isTestCase","valueBoolean":true}],"status":"complete","type":"individual","measure":"http://ecqi.healthit.gov/ecqms/Measure/HIVScreeningFHIR","period":{"start":"2024-01-01","end":"2024-12-31"},"group":[{"population":[{"code":{"coding":[{"system":"http://terminology.hl7.org/CodeSystem/measure-population","code":"initial-population","display":"Initial Population"}]},"count":0},{"code":{"coding":[{"system":"http://terminology.hl7.org/CodeSystem/measure-population","code":"denominator","display":"Denominator"}]},"count":0},{"code":{"coding":[{"system":"http://terminology.hl7.org/CodeSystem/measure-population","code":"denominator-exclusion","display":"Denominator Exclusion"}]},"count":0},{"code":{"coding":[{"system":"http://terminology.hl7.org/CodeSystem/measure-population","code":"numerator","display":"Numerator"}]},"count":0}]}],"evaluatedResource":[{"reference":"https://madie.cms.gov/Patient/29181d46-2dc5-4aeb-a24e-c27692e345dc"},{"reference":"Encounter/5c9e578cb8484602c2f92232"}]}}]},"request":{"method":"PUT","url":"Bundle/610965b898086b538055c14c"}}]}