{"resourceType":"Bundle","id":"tests-79371589-113c-4c26-9dcf-02e32b137be5-bundle","type":"transaction","entry":[{"resource":{"resourceType":"Bundle","id":"610965b898086b538055c14e","type":"collection","entry":[{"fullUrl":"https://madie.cms.gov/Patient/79371589-113c-4c26-9dcf-02e32b137be5","resource":{"resourceType":"Patient","id":"79371589-113c-4c26-9dcf-02e32b137be5","meta":{"profile":["http://hl7.org/fhir/us/qicore/StructureDefinition/qicore-patient"]},"text":{"status":"generated","div":"<div xmlns=\"http://www.w3.org/1999/xhtml\"><div class=\"hapiHeaderText\">LabTestTooOld <b>NUMERFAIL </b></div><table class=\"hapiPropertyTable\"><tbody><tr><td>Identifier</td><td>3a3b648e0cc14e200f2d48b72852219e3b95e5787df1549ba35aedfebdf90868</td></tr><tr><td>Date of birth</td><td><span>02 January 1946</span></td></tr></tbody></table></div>"},"extension":[{"url":"http://hl7.org/fhir/us/core/StructureDefinition/us-core-race","extension":[{"url":"ombCategory","valueCoding":{"system":"urn:oid:2.16.840.1.113883.6.238","code":"1002-5","display":"American Indian or Alaska Native","userSelected":true}},{"url":"text","valueString":"American Indian or Alaska Native"}]},{"url":"http://hl7.org/fhir/us/core/StructureDefinition/us-core-ethnicity","extension":[{"url":"ombCategory","valueCoding":{"system":"urn:oid:2.16.840.1.113883.6.238","code":"2135-2","display":"Hispanic or Latino","userSelected":true}},{"url":"text","valueString":"Hispanic or Latino"}]}],"identifier":[{"type":{"coding":[{"system":"http://terminology.hl7.org/CodeSystem/v2-0203","code":"MR"}]},"system":"https://bonnie-fhir.healthit.gov/","value":"610965b898086b538055c14e"}],"active":true,"name":[{"use":"usual","family":"NUMERFail","given":["LabTestTooOld"]}],"gender":"male","birthDate":"1958-01-02"}},{"fullUrl":"5c9e578cb8484602c2f92219","resource":{"resourceType":"Encounter","id":"5c9e578cb8484602c2f92219","meta":{"profile":["http://hl7.org/fhir/us/qicore/StructureDefinition/qicore-encounter"]},"status":"finished","class":{"system":"http://terminology.hl7.org/CodeSystem/v3-ActCode","code":"AMB","display":"ambulatory","userSelected":true},"type":[{"coding":[{"system":"http://www.ama-assn.org/go/cpt","code":"99395"}]}],"subject":{"reference":"Patient/79371589-113c-4c26-9dcf-02e32b137be5"},"period":{"start":"2024-02-06T08:00:00.000+00:00","end":"2024-02-06T08:15:00.000+00:00"}}},{"fullUrl":"5c9e578cb8484602c2f9221a","resource":{"resourceType":"Observation","id":"5c9e578cb8484602c2f9221a","meta":{"profile":["http://hl7.org/fhir/us/qicore/StructureDefinition/qicore-observation"]},"status":"final","category":[{"coding":[{"system":"http://terminology.hl7.org/CodeSystem/observation-category","code":"laboratory","display":"Laboratory","userSelected":true}]}],"code":{"coding":[{"system":"http://loinc.org","code":"10901-7"}]},"subject":{"reference":"Patient/79371589-113c-4c26-9dcf-02e32b137be5"},"effectiveDateTime":"2024-04-06T08:00:00.000+00:00","valueBoolean":true}},{"fullUrl":"https://madie.cms.gov/MeasureReport/6385057e4ba3d47c885c02cd/79371589-113c-4c26-9dcf-02e32b137be5","resource":{"resourceType":"MeasureReport","id":"cede0aca-782b-492f-b135-f95e2568fbf2","meta":{"profile":["http://hl7.org/fhir/us/cqfmeasures/StructureDefinition/test-case-cqfm"]},"contained":[{"resourceType":"Parameters","id":"LabTestTooOld-parameters","parameter":[{"name":"subject","valueString":"79371589-113c-4c26-9dcf-02e32b137be5"}]}],"extension":[{"url":"http://hl7.org/fhir/us/cqfmeasures/StructureDefinition/cqfm-inputParameters","valueReference":{"reference":"#LabTestTooOld-parameters"}},{"url":"http://hl7.org/fhir/us/cqfmeasures/StructureDefinition/cqfm-testCaseDescription","valueMarkdown":"Patient 65 at start of MP, qual encounter during MP, lab test at 66 during MP."}],"modifierExtension":[{"url":"http://hl7.org/fhir/us/cqfmeasures/StructureDefinition/cqfm-isTestCase","valueBoolean":true}],"status":"complete","type":"individual","measure":"http://ecqi.healthit.gov/ecqms/Measure/HIVScreeningFHIR","period":{"start":"2024-01-01","end":"2024-12-31"},"group":[{"population":[{"code":{"coding":[{"system":"http://terminology.hl7.org/CodeSystem/measure-population","code":"initial-population","display":"Initial Population"}]},"count":1},{"code":{"coding":[{"system":"http://terminology.hl7.org/CodeSystem/measure-population","code":"denominator","display":"Denominator"}]},"count":1},{"code":{"coding":[{"system":"http://terminology.hl7.org/CodeSystem/measure-population","code":"denominator-exclusion","display":"Denominator Exclusion"}]},"count":0},{"code":{"coding":[{"system":"http://terminology.hl7.org/CodeSystem/measure-population","code":"numerator","display":"Numerator"}]},"count":0}]}],"evaluatedResource":[{"reference":"https://madie.cms.gov/Patient/79371589-113c-4c26-9dcf-02e32b137be5"},{"reference":"Encounter/5c9e578cb8484602c2f92219"},{"reference":"Observation/5c9e578cb8484602c2f9221a"}]}}]},"request":{"method":"PUT","url":"Bundle/610965b898086b538055c14e"}}]}