{"resourceType":"Bundle","id":"tests-4e0b6b65-dd03-4abe-8596-0a023103e4d9-bundle","type":"transaction","entry":[{"resource":{"resourceType":"Bundle","id":"63ec09a8ccb3770120feac98","type":"collection","entry":[{"fullUrl":"https://madie.cms.gov/Patient/4e0b6b65-dd03-4abe-8596-0a023103e4d9","resource":{"resourceType":"Patient","id":"4e0b6b65-dd03-4abe-8596-0a023103e4d9","meta":{"profile":["http://hl7.org/fhir/us/qicore/StructureDefinition/qicore-patient"]},"text":{"status":"generated","div":"<div xmlns=\"http://www.w3.org/1999/xhtml\"><div class=\"hapiHeaderText\">EncEndsAfterMP <b>IPFAIL </b></div><table class=\"hapiPropertyTable\"><tbody><tr><td>Identifier</td><td>4f87f6d54415dde420e810cb77d8a3f556e3e19f4e5d08e0a9af33ba9b1be52b</td></tr><tr><td>Date of birth</td><td><span>22 June 1945</span></td></tr></tbody></table></div>"},"extension":[{"url":"http://hl7.org/fhir/us/core/StructureDefinition/us-core-race","extension":[{"url":"ombCategory","valueCoding":{"system":"urn:oid:2.16.840.1.113883.6.238","code":"1002-5","display":"American Indian or Alaska Native","userSelected":true}},{"url":"text","valueString":"American Indian or Alaska Native"}]},{"url":"http://hl7.org/fhir/us/core/StructureDefinition/us-core-ethnicity","extension":[{"url":"ombCategory","valueCoding":{"system":"urn:oid:2.16.840.1.113883.6.238","code":"2186-5","display":"Not Hispanic or Latino","userSelected":true}},{"url":"text","valueString":"Not Hispanic or Latino"}]}],"identifier":[{"type":{"coding":[{"system":"http://terminology.hl7.org/CodeSystem/v2-0203","code":"MR"}]},"system":"https://bonnie-fhir.healthit.gov/","value":"63ec09a8ccb3770120feac98"}],"active":true,"name":[{"use":"usual","family":"IPFail","given":["EncEndsAfterMP"]}],"gender":"male","birthDate":"1945-06-22"}},{"fullUrl":"5e2efddde2a48f000074dbde","resource":{"resourceType":"Encounter","id":"5e2efddde2a48f000074dbde","meta":{"profile":["http://hl7.org/fhir/us/qicore/StructureDefinition/qicore-encounter"]},"status":"finished","class":{"system":"http://terminology.hl7.org/CodeSystem/v3-ActCode","code":"IMP","display":"inpatient encounter","userSelected":true},"type":[{"coding":[{"system":"http://snomed.info/sct","code":"183452005"}]}],"subject":{"reference":"Patient/4e0b6b65-dd03-4abe-8596-0a023103e4d9"},"period":{"start":"2025-06-02T08:00:00.000+00:00","end":"2025-07-01T00:01:00.000+00:00"},"length":{"value":30.0,"unit":"days"}}},{"fullUrl":"5f99740e40e89a00005371ca","resource":{"resourceType":"Coverage","id":"5f99740e40e89a00005371ca","meta":{"profile":["http://hl7.org/fhir/us/qicore/StructureDefinition/qicore-coverage"]},"status":"active","type":{"coding":[{"system":"https://nahdo.org/sopt","version":"1.0.1","code":"1","display":"Medicare payer","userSelected":true}]},"beneficiary":{"reference":"Patient/4e0b6b65-dd03-4abe-8596-0a023103e4d9"},"payor":[{"reference":"Organization/123456"}]}},{"fullUrl":"http://Organization/123456","resource":{"resourceType":"Organization","id":"123456","meta":{"profile":["http://hl7.org/fhir/us/qicore/StructureDefinition/qicore-organization"]},"identifier":[{"use":"temp","system":"urn:oid:2.16.840.1.113883.4.4","value":"21-3259825"}],"active":true,"type":[{"coding":[{"system":"http://terminology.hl7.org/CodeSystem/organization-type","code":"pay","display":"Payer"}]}],"name":"Blue Cross Blue Shield of Texas","telecom":[{"system":"phone","value":"(+1) 972-766-6900"}],"address":[{"use":"billing","type":"postal","line":["P.O. Box 660044"],"city":"Dallas","state":"TX","postalCode":"75266-0044","country":"USA"}]}},{"fullUrl":"http://Practitioner/123456","resource":{"resourceType":"Practitioner","id":"practitioner-123456","meta":{"profile":["http://hl7.org/fhir/us/qicore/StructureDefinition/qicore-practitioner"]},"identifier":[{"system":"http://hl7.org/fhir/sid/us-npi","value":"123456"}],"name":[{"family":"Evil","prefix":["Dr"]}]}},{"fullUrl":"https://madie.cms.gov/MeasureReport/638501714ba3d47c885c02ad/4e0b6b65-dd03-4abe-8596-0a023103e4d9","resource":{"resourceType":"MeasureReport","id":"25c81e3b-2f46-4931-add3-efebb3efd899","meta":{"profile":["http://hl7.org/fhir/us/cqfmeasures/StructureDefinition/test-case-cqfm"]},"contained":[{"resourceType":"Parameters","id":"EncEndsAfterMP-parameters","parameter":[{"name":"subject","valueString":"4e0b6b65-dd03-4abe-8596-0a023103e4d9"}]}],"extension":[{"url":"http://hl7.org/fhir/us/cqfmeasures/StructureDefinition/cqfm-inputParameters","valueReference":{"reference":"#EncEndsAfterMP-parameters"}},{"url":"http://hl7.org/fhir/us/cqfmeasures/StructureDefinition/cqfm-testCaseDescription","valueMarkdown":"Encounter ends after measurement period ends. \nNot included in initial population. "}],"modifierExtension":[{"url":"http://hl7.org/fhir/us/cqfmeasures/StructureDefinition/cqfm-isTestCase","valueBoolean":true}],"status":"complete","type":"individual","measure":"http://ecqi.healthit.gov/ecqms/Measure/HybridHospitalWideReadmissionFHIR","period":{"start":"2024-07-01","end":"2025-06-30"},"group":[{"population":[{"code":{"coding":[{"system":"http://terminology.hl7.org/CodeSystem/measure-population","code":"initial-population","display":"Initial Population"}]},"count":0}]}],"evaluatedResource":[{"reference":"https://madie.cms.gov/Patient/4e0b6b65-dd03-4abe-8596-0a023103e4d9"},{"reference":"Encounter/5e2efddde2a48f000074dbde"},{"reference":"Coverage/5f99740e40e89a00005371ca"},{"reference":"Organization/123456"},{"reference":"Practitioner/practitioner-123456"}]}}]},"request":{"method":"PUT","url":"Bundle/63ec09a8ccb3770120feac98"}}]}