{"resourceType":"Bundle","id":"tests-8f6ed35e-e829-4d3d-8f66-22655b46407d-bundle","type":"transaction","entry":[{"resource":{"resourceType":"Bundle","id":"63ec09a0ccb3770120fea58e","type":"collection","entry":[{"fullUrl":"https://madie.cms.gov/Patient/8f6ed35e-e829-4d3d-8f66-22655b46407d","resource":{"resourceType":"Patient","id":"8f6ed35e-e829-4d3d-8f66-22655b46407d","meta":{"profile":["http://hl7.org/fhir/us/qicore/StructureDefinition/qicore-patient"]},"text":{"status":"generated","div":"<div xmlns=\"http://www.w3.org/1999/xhtml\"><div class=\"hapiHeaderText\">WeightSBP_relevantPeriod <b>COMBO1 </b></div><table class=\"hapiPropertyTable\"><tbody><tr><td>Identifier</td><td>647b828a576e8c34eaa21fd1cdb85d1e5f291be13e6a5c34a9fc817d4466c0f5</td></tr><tr><td>Date of birth</td><td><span>21 June 1947</span></td></tr></tbody></table></div>"},"extension":[{"url":"http://hl7.org/fhir/us/core/StructureDefinition/us-core-race","extension":[{"url":"ombCategory","valueCoding":{"system":"urn:oid:2.16.840.1.113883.6.238","code":"1002-5","display":"American Indian or Alaska Native","userSelected":true}},{"url":"text","valueString":"American Indian or Alaska Native"}]},{"url":"http://hl7.org/fhir/us/core/StructureDefinition/us-core-ethnicity","extension":[{"url":"ombCategory","valueCoding":{"system":"urn:oid:2.16.840.1.113883.6.238","code":"2186-5","display":"Not Hispanic or Latino","userSelected":true}},{"url":"text","valueString":"Not Hispanic or Latino"}]}],"identifier":[{"type":{"coding":[{"system":"http://terminology.hl7.org/CodeSystem/v2-0203","code":"MR"}]},"system":"https://bonnie-fhir.healthit.gov/","value":"63ec09a0ccb3770120fea58e"}],"active":true,"name":[{"use":"usual","family":"Combo1","given":["WeightSBPrelevantPeriod"]}],"gender":"male","birthDate":"1947-06-21"}},{"fullUrl":"5dc2d9d1831f330000d73fd7","resource":{"resourceType":"Encounter","id":"5dc2d9d1831f330000d73fd7","meta":{"profile":["http://hl7.org/fhir/us/qicore/StructureDefinition/qicore-encounter"]},"status":"finished","class":{"system":"http://terminology.hl7.org/CodeSystem/v3-ActCode","code":"NONAC","display":"Nonacute","userSelected":true},"type":[{"coding":[{"system":"http://snomed.info/sct","code":"183452005"}]}],"subject":{"reference":"Patient/8f6ed35e-e829-4d3d-8f66-22655b46407d"},"period":{"start":"2024-08-21T08:00:00.000+00:00","end":"2024-09-18T08:15:00.000+00:00"}}},{"fullUrl":"5f9973698374d6000038ab7b","resource":{"resourceType":"Coverage","id":"5f9973698374d6000038ab7b","meta":{"profile":["http://hl7.org/fhir/us/qicore/StructureDefinition/qicore-coverage"]},"status":"active","type":{"coding":[{"system":"https://nahdo.org/sopt","version":"1.0.1","code":"1","display":"Medicare payer","userSelected":true}]},"beneficiary":{"reference":"Patient/8f6ed35e-e829-4d3d-8f66-22655b46407d"},"payor":[{"reference":"Organization/123456"}]}},{"fullUrl":"5b562aebb84846558c53c155","resource":{"resourceType":"Observation","id":"5b562aebb84846558c53c155","meta":{"profile":["http://hl7.org/fhir/us/qicore/StructureDefinition/qicore-observation"]},"status":"final","category":[{"coding":[{"system":"http://terminology.hl7.org/CodeSystem/observation-category","code":"laboratory","display":"laboratory","userSelected":true}]}],"code":{"coding":[{"system":"http://loinc.org","code":"29463-7"}]},"subject":{"reference":"Patient/8f6ed35e-e829-4d3d-8f66-22655b46407d"},"effectiveDateTime":"2024-08-20T08:01:00.000+00:00","valueQuantity":{"value":170.0}}},{"fullUrl":"5b562aebb84846558c53c157","resource":{"resourceType":"Observation","id":"5b562aebb84846558c53c157","meta":{"profile":["http://hl7.org/fhir/us/qicore/StructureDefinition/qicore-observation"]},"status":"amended","category":[{"coding":[{"system":"http://terminology.hl7.org/CodeSystem/observation-category","code":"laboratory","display":"laboratory","userSelected":true}]}],"code":{"coding":[{"system":"http://loinc.org","code":"8480-6"}]},"subject":{"reference":"Patient/8f6ed35e-e829-4d3d-8f66-22655b46407d"},"effectiveDateTime":"2024-08-20T07:00:00+00:00","valueQuantity":{"value":120.0}}},{"fullUrl":"5b562aebb84846558c53c159","resource":{"resourceType":"Observation","id":"5b562aebb84846558c53c159","meta":{"profile":["http://hl7.org/fhir/us/qicore/StructureDefinition/qicore-observation"]},"status":"amended","category":[{"coding":[{"system":"http://terminology.hl7.org/CodeSystem/observation-category","code":"laboratory","display":"laboratory","userSelected":true}]}],"code":{"coding":[{"system":"http://loinc.org","code":"8480-6"}]},"subject":{"reference":"Patient/8f6ed35e-e829-4d3d-8f66-22655b46407d"},"effectiveDateTime":"2024-08-21T10:01:00+00:00","valueQuantity":{"value":115.0}}},{"fullUrl":"5b562aebb84846558c53c15b","resource":{"resourceType":"Observation","id":"5b562aebb84846558c53c15b","meta":{"profile":["http://hl7.org/fhir/us/qicore/StructureDefinition/qicore-observation"]},"status":"final","category":[{"coding":[{"system":"http://terminology.hl7.org/CodeSystem/observation-category","code":"laboratory","display":"laboratory","userSelected":true}]}],"code":{"coding":[{"system":"http://loinc.org","code":"29463-7"}]},"subject":{"reference":"Patient/8f6ed35e-e829-4d3d-8f66-22655b46407d"},"effectiveDateTime":"2024-08-21T07:59:00.000+00:00","valueQuantity":{"value":165.0}}},{"fullUrl":"http://Organization/123456","resource":{"resourceType":"Organization","id":"123456","meta":{"profile":["http://hl7.org/fhir/us/qicore/StructureDefinition/qicore-organization"]},"identifier":[{"use":"temp","system":"urn:oid:2.16.840.1.113883.4.4","value":"21-3259825"}],"active":true,"type":[{"coding":[{"system":"http://terminology.hl7.org/CodeSystem/organization-type","code":"pay","display":"Payer"}]}],"name":"Blue Cross Blue Shield of Texas","telecom":[{"system":"phone","value":"(+1) 972-766-6900"}],"address":[{"use":"billing","type":"postal","line":["P.O. Box 660044"],"city":"Dallas","state":"TX","postalCode":"75266-0044","country":"USA"}]}},{"fullUrl":"http://Practitioner/123456","resource":{"resourceType":"Practitioner","id":"practitioner-123456","meta":{"profile":["http://hl7.org/fhir/us/qicore/StructureDefinition/qicore-practitioner"]},"identifier":[{"system":"http://hl7.org/fhir/sid/us-npi","value":"123456"}],"name":[{"family":"Evil","prefix":["Dr"]}]}},{"fullUrl":"https://madie.cms.gov/MeasureReport/638501714ba3d47c885c02ad/8f6ed35e-e829-4d3d-8f66-22655b46407d","resource":{"resourceType":"MeasureReport","id":"34e3eb51-4708-4f1a-b2c8-866625502bc7","meta":{"profile":["http://hl7.org/fhir/us/cqfmeasures/StructureDefinition/test-case-cqfm"]},"contained":[{"resourceType":"Parameters","id":"WeightSBPrelevantPeriod-parameters","parameter":[{"name":"subject","valueString":"8f6ed35e-e829-4d3d-8f66-22655b46407d"}]}],"extension":[{"url":"http://hl7.org/fhir/us/cqfmeasures/StructureDefinition/cqfm-inputParameters","valueReference":{"reference":"#WeightSBPrelevantPeriod-parameters"}},{"url":"http://hl7.org/fhir/us/cqfmeasures/StructureDefinition/cqfm-testCaseDescription","valueMarkdown":"Systolic blood pressure labs not in encounter timing interval. \nSystolic blood pressure results not included in measure results.  \nBoth body weight exams occur within encounter timing interval.\nResults of first occurring exam in measure results. "}],"modifierExtension":[{"url":"http://hl7.org/fhir/us/cqfmeasures/StructureDefinition/cqfm-isTestCase","valueBoolean":true}],"status":"complete","type":"individual","measure":"http://ecqi.healthit.gov/ecqms/Measure/HybridHospitalWideReadmissionFHIR","period":{"start":"2024-07-01","end":"2025-06-30"},"group":[{"population":[{"code":{"coding":[{"system":"http://terminology.hl7.org/CodeSystem/measure-population","code":"initial-population","display":"Initial Population"}]},"count":1}]}],"evaluatedResource":[{"reference":"https://madie.cms.gov/Patient/8f6ed35e-e829-4d3d-8f66-22655b46407d"},{"reference":"Encounter/5dc2d9d1831f330000d73fd7"},{"reference":"Coverage/5f9973698374d6000038ab7b"},{"reference":"Observation/5b562aebb84846558c53c155"},{"reference":"Observation/5b562aebb84846558c53c157"},{"reference":"Observation/5b562aebb84846558c53c159"},{"reference":"Observation/5b562aebb84846558c53c15b"},{"reference":"Organization/123456"},{"reference":"Practitioner/practitioner-123456"}]}}]},"request":{"method":"PUT","url":"Bundle/63ec09a0ccb3770120fea58e"}}]}