{"resourceType":"Bundle","id":"tests-584b75e4-19ca-4fa1-b53d-e665dfa7fa5c-bundle","type":"transaction","entry":[{"resource":{"resourceType":"Bundle","id":"63ec09abccb3770120feaf6d","type":"collection","entry":[{"fullUrl":"https://madie.cms.gov/Patient/584b75e4-19ca-4fa1-b53d-e665dfa7fa5c","resource":{"resourceType":"Patient","id":"584b75e4-19ca-4fa1-b53d-e665dfa7fa5c","meta":{"profile":["http://hl7.org/fhir/us/qicore/StructureDefinition/qicore-patient"]},"text":{"status":"generated","div":"<div xmlns=\"http://www.w3.org/1999/xhtml\"><div class=\"hapiHeaderText\">GT24beforeAndGT24after_RelevantDT <b>RRFAIL </b></div><table class=\"hapiPropertyTable\"><tbody><tr><td>Identifier</td><td>6b96c7322b6ea501cb069f5b5d0350be5b4be325a692598aba6b49af1cb369c3</td></tr><tr><td>Date of birth</td><td><span>15 June 1947</span></td></tr></tbody></table></div>"},"extension":[{"url":"http://hl7.org/fhir/us/core/StructureDefinition/us-core-race","extension":[{"url":"ombCategory","valueCoding":{"system":"urn:oid:2.16.840.1.113883.6.238","code":"1002-5","display":"American Indian or Alaska Native","userSelected":true}},{"url":"text","valueString":"American Indian or Alaska Native"}]},{"url":"http://hl7.org/fhir/us/core/StructureDefinition/us-core-ethnicity","extension":[{"url":"ombCategory","valueCoding":{"system":"urn:oid:2.16.840.1.113883.6.238","code":"2186-5","display":"Not Hispanic or Latino","userSelected":true}},{"url":"text","valueString":"Not Hispanic or Latino"}]}],"identifier":[{"type":{"coding":[{"system":"http://terminology.hl7.org/CodeSystem/v2-0203","code":"MR"}]},"system":"https://bonnie-fhir.healthit.gov/","value":"63ec09abccb3770120feaf6d"}],"active":true,"name":[{"use":"usual","family":"RRFail","given":["GT24beforeAndGT24afterRelevantDT"]}],"gender":"male","birthDate":"1947-06-15"}},{"fullUrl":"5dc2db40831f330000d741e6","resource":{"resourceType":"Encounter","id":"5dc2db40831f330000d741e6","meta":{"profile":["http://hl7.org/fhir/us/qicore/StructureDefinition/qicore-encounter"]},"status":"finished","class":{"system":"http://terminology.hl7.org/CodeSystem/v3-ActCode","code":"ACUTE","display":"Acute","userSelected":true},"type":[{"coding":[{"system":"http://snomed.info/sct","code":"183452005"}]}],"subject":{"reference":"Patient/584b75e4-19ca-4fa1-b53d-e665dfa7fa5c"},"period":{"start":"2024-08-21T08:00:00.000+00:00","end":"2024-08-22T08:15:00.000+00:00"}}},{"fullUrl":"5f98f56ca916680000fb6ed0","resource":{"resourceType":"Coverage","id":"5f98f56ca916680000fb6ed0","meta":{"profile":["http://hl7.org/fhir/us/qicore/StructureDefinition/qicore-coverage"]},"status":"active","type":{"coding":[{"system":"https://nahdo.org/sopt","version":"1.0.1","code":"1","display":"Medicare payer","userSelected":true}]},"beneficiary":{"reference":"Patient/584b75e4-19ca-4fa1-b53d-e665dfa7fa5c"},"payor":[{"reference":"Organization/123456"}]}},{"fullUrl":"5b55f69ab84846558c53bb60","resource":{"resourceType":"Observation","id":"5b55f69ab84846558c53bb60","meta":{"profile":["http://hl7.org/fhir/us/qicore/StructureDefinition/qicore-observation"]},"status":"final","category":[{"coding":[{"system":"http://terminology.hl7.org/CodeSystem/observation-category","code":"laboratory","display":"laboratory","userSelected":true}]}],"code":{"coding":[{"system":"http://loinc.org","code":"9279-1"}]},"subject":{"reference":"Patient/584b75e4-19ca-4fa1-b53d-e665dfa7fa5c"},"effectiveDateTime":"2024-08-20T06:00:00.000+00:00","valueQuantity":{"value":1.0}}},{"fullUrl":"5b55f69ab84846558c53bb62","resource":{"resourceType":"Observation","id":"5b55f69ab84846558c53bb62","meta":{"profile":["http://hl7.org/fhir/us/qicore/StructureDefinition/qicore-observation"]},"status":"final","category":[{"coding":[{"system":"http://terminology.hl7.org/CodeSystem/observation-category","code":"laboratory","display":"laboratory","userSelected":true}]}],"code":{"coding":[{"system":"http://loinc.org","code":"9279-1"}]},"subject":{"reference":"Patient/584b75e4-19ca-4fa1-b53d-e665dfa7fa5c"},"effectiveDateTime":"2024-08-21T20:00:00.000+00:00","valueQuantity":{"value":2.0}}},{"fullUrl":"5b55f69ab84846558c53bb64","resource":{"resourceType":"Observation","id":"5b55f69ab84846558c53bb64","meta":{"profile":["http://hl7.org/fhir/us/qicore/StructureDefinition/qicore-observation"]},"status":"final","category":[{"coding":[{"system":"http://terminology.hl7.org/CodeSystem/observation-category","code":"laboratory","display":"laboratory","userSelected":true}]}],"code":{"coding":[{"system":"http://loinc.org","code":"9279-1"}]},"subject":{"reference":"Patient/584b75e4-19ca-4fa1-b53d-e665dfa7fa5c"},"effectiveDateTime":"2024-08-22T08:00:00.000+00:00","valueQuantity":{"value":3.0}}},{"fullUrl":"http://Organization/123456","resource":{"resourceType":"Organization","id":"123456","meta":{"profile":["http://hl7.org/fhir/us/qicore/StructureDefinition/qicore-organization"]},"identifier":[{"use":"temp","system":"urn:oid:2.16.840.1.113883.4.4","value":"21-3259825"}],"active":true,"type":[{"coding":[{"system":"http://terminology.hl7.org/CodeSystem/organization-type","code":"pay","display":"Payer"}]}],"name":"Blue Cross Blue Shield of Texas","telecom":[{"system":"phone","value":"(+1) 972-766-6900"}],"address":[{"use":"billing","type":"postal","line":["P.O. Box 660044"],"city":"Dallas","state":"TX","postalCode":"75266-0044","country":"USA"}]}},{"fullUrl":"http://Practitioner/123456","resource":{"resourceType":"Practitioner","id":"practitioner-123456","meta":{"profile":["http://hl7.org/fhir/us/qicore/StructureDefinition/qicore-practitioner"]},"identifier":[{"system":"http://hl7.org/fhir/sid/us-npi","value":"123456"}],"name":[{"family":"Evil","prefix":["Dr"]}]}},{"fullUrl":"https://madie.cms.gov/MeasureReport/638501714ba3d47c885c02ad/584b75e4-19ca-4fa1-b53d-e665dfa7fa5c","resource":{"resourceType":"MeasureReport","id":"80169f97-9008-4ff8-a0fd-59059e4912b7","meta":{"profile":["http://hl7.org/fhir/us/cqfmeasures/StructureDefinition/test-case-cqfm"]},"contained":[{"resourceType":"Parameters","id":"GT24beforeAndGT24afterRelevantDT-parameters","parameter":[{"name":"subject","valueString":"584b75e4-19ca-4fa1-b53d-e665dfa7fa5c"}]}],"extension":[{"url":"http://hl7.org/fhir/us/cqfmeasures/StructureDefinition/cqfm-inputParameters","valueReference":{"reference":"#GT24beforeAndGT24afterRelevantDT-parameters"}},{"url":"http://hl7.org/fhir/us/cqfmeasures/StructureDefinition/cqfm-testCaseDescription","valueMarkdown":"Patient had 3 respiratory rate exams. \nAll exams occurred outside the encounter timing interval.\nNo exam results in the measure results."}],"modifierExtension":[{"url":"http://hl7.org/fhir/us/cqfmeasures/StructureDefinition/cqfm-isTestCase","valueBoolean":true}],"status":"complete","type":"individual","measure":"http://ecqi.healthit.gov/ecqms/Measure/HybridHospitalWideReadmissionFHIR","period":{"start":"2024-07-01","end":"2025-06-30"},"group":[{"population":[{"code":{"coding":[{"system":"http://terminology.hl7.org/CodeSystem/measure-population","code":"initial-population","display":"Initial Population"}]},"count":1}]}],"evaluatedResource":[{"reference":"https://madie.cms.gov/Patient/584b75e4-19ca-4fa1-b53d-e665dfa7fa5c"},{"reference":"Encounter/5dc2db40831f330000d741e6"},{"reference":"Coverage/5f98f56ca916680000fb6ed0"},{"reference":"Observation/5b55f69ab84846558c53bb60"},{"reference":"Observation/5b55f69ab84846558c53bb62"},{"reference":"Observation/5b55f69ab84846558c53bb64"},{"reference":"Organization/123456"},{"reference":"Practitioner/practitioner-123456"}]}}]},"request":{"method":"PUT","url":"Bundle/63ec09abccb3770120feaf6d"}}]}