{"resourceType":"Bundle","id":"tests-74bb606d-5f65-4c46-a682-8729e3bfd1dc-bundle","type":"transaction","entry":[{"resource":{"resourceType":"Bundle","id":"63ec09a4ccb3770120fea941","type":"collection","entry":[{"fullUrl":"https://madie.cms.gov/Patient/74bb606d-5f65-4c46-a682-8729e3bfd1dc","resource":{"resourceType":"Patient","id":"74bb606d-5f65-4c46-a682-8729e3bfd1dc","meta":{"profile":["http://hl7.org/fhir/us/qicore/StructureDefinition/qicore-patient"]},"text":{"status":"generated","div":"<div xmlns=\"http://www.w3.org/1999/xhtml\"><div class=\"hapiHeaderText\">LTE24before <b>SBPPASS </b></div><table class=\"hapiPropertyTable\"><tbody><tr><td>Identifier</td><td>4be5376423642962b99d439305bdcd9ef137609b2e2d4e95cceb5e333cd6aea9</td></tr><tr><td>Date of birth</td><td><span>15 June 1947</span></td></tr></tbody></table></div>"},"extension":[{"url":"http://hl7.org/fhir/us/core/StructureDefinition/us-core-race","extension":[{"url":"ombCategory","valueCoding":{"system":"urn:oid:2.16.840.1.113883.6.238","code":"1002-5","display":"American Indian or Alaska Native","userSelected":true}},{"url":"text","valueString":"American Indian or Alaska Native"}]},{"url":"http://hl7.org/fhir/us/core/StructureDefinition/us-core-ethnicity","extension":[{"url":"ombCategory","valueCoding":{"system":"urn:oid:2.16.840.1.113883.6.238","code":"2186-5","display":"Not Hispanic or Latino","userSelected":true}},{"url":"text","valueString":"Not Hispanic or Latino"}]}],"identifier":[{"type":{"coding":[{"system":"http://terminology.hl7.org/CodeSystem/v2-0203","code":"MR"}]},"system":"https://bonnie-fhir.healthit.gov/","value":"63ec09a4ccb3770120fea941"}],"active":true,"name":[{"use":"usual","family":"SBPPass","given":["LTE24before"]}],"gender":"male","birthDate":"1947-06-15"}},{"fullUrl":"5dc2dbeb831f330000d742a9","resource":{"resourceType":"Encounter","id":"5dc2dbeb831f330000d742a9","meta":{"profile":["http://hl7.org/fhir/us/qicore/StructureDefinition/qicore-encounter"]},"status":"finished","class":{"system":"http://terminology.hl7.org/CodeSystem/v3-ActCode","code":"IMP","display":"inpatient encounter","userSelected":true},"type":[{"coding":[{"system":"http://snomed.info/sct","code":"183452005"}]}],"subject":{"reference":"Patient/74bb606d-5f65-4c46-a682-8729e3bfd1dc"},"period":{"start":"2024-07-21T08:00:00.000+00:00","end":"2024-08-18T08:15:00.000+00:00"}}},{"fullUrl":"5ddc410daef70c00005ba317","resource":{"resourceType":"Coverage","id":"5ddc410daef70c00005ba317","meta":{"profile":["http://hl7.org/fhir/us/qicore/StructureDefinition/qicore-coverage"]},"status":"active","type":{"coding":[{"system":"https://nahdo.org/sopt","version":"1.0.1","code":"1","display":"Medicare payer","userSelected":true}]},"beneficiary":{"reference":"Patient/74bb606d-5f65-4c46-a682-8729e3bfd1dc"},"payor":[{"reference":"Organization/123456"}]}},{"fullUrl":"5b7c54c2b84846299c81a4c7","resource":{"resourceType":"Observation","id":"5b7c54c2b84846299c81a4c7","meta":{"profile":["http://hl7.org/fhir/us/qicore/StructureDefinition/qicore-observation"]},"status":"final","category":[{"coding":[{"system":"http://terminology.hl7.org/CodeSystem/observation-category","code":"laboratory","display":"laboratory","userSelected":true}]}],"code":{"coding":[{"system":"http://loinc.org","code":"8480-6"}]},"subject":{"reference":"Patient/74bb606d-5f65-4c46-a682-8729e3bfd1dc"},"effectiveDateTime":"2024-07-21T07:59:00.000+00:00","valueQuantity":{"value":5.0}}},{"fullUrl":"http://Organization/123456","resource":{"resourceType":"Organization","id":"123456","meta":{"profile":["http://hl7.org/fhir/us/qicore/StructureDefinition/qicore-organization"]},"identifier":[{"use":"temp","system":"urn:oid:2.16.840.1.113883.4.4","value":"21-3259825"}],"active":true,"type":[{"coding":[{"system":"http://terminology.hl7.org/CodeSystem/organization-type","code":"pay","display":"Payer"}]}],"name":"Blue Cross Blue Shield of Texas","telecom":[{"system":"phone","value":"(+1) 972-766-6900"}],"address":[{"use":"billing","type":"postal","line":["P.O. Box 660044"],"city":"Dallas","state":"TX","postalCode":"75266-0044","country":"USA"}]}},{"fullUrl":"http://Practitioner/123456","resource":{"resourceType":"Practitioner","id":"practitioner-123456","meta":{"profile":["http://hl7.org/fhir/us/qicore/StructureDefinition/qicore-practitioner"]},"identifier":[{"system":"http://hl7.org/fhir/sid/us-npi","value":"123456"}],"name":[{"family":"Evil","prefix":["Dr"]}]}},{"fullUrl":"https://madie.cms.gov/MeasureReport/638501714ba3d47c885c02ad/74bb606d-5f65-4c46-a682-8729e3bfd1dc","resource":{"resourceType":"MeasureReport","id":"91db10de-5b8b-41c0-a45c-57d4f28dbf65","meta":{"profile":["http://hl7.org/fhir/us/cqfmeasures/StructureDefinition/test-case-cqfm"]},"contained":[{"resourceType":"Parameters","id":"LTE24before-parameters","parameter":[{"name":"subject","valueString":"74bb606d-5f65-4c46-a682-8729e3bfd1dc"}]}],"extension":[{"url":"http://hl7.org/fhir/us/cqfmeasures/StructureDefinition/cqfm-inputParameters","valueReference":{"reference":"#LTE24before-parameters"}},{"url":"http://hl7.org/fhir/us/cqfmeasures/StructureDefinition/cqfm-testCaseDescription","valueMarkdown":"Patient has systolic blood pressure exam.\nExam occurred within encounter timing interval.\nExam results included in measure results. "}],"modifierExtension":[{"url":"http://hl7.org/fhir/us/cqfmeasures/StructureDefinition/cqfm-isTestCase","valueBoolean":true}],"status":"complete","type":"individual","measure":"http://ecqi.healthit.gov/ecqms/Measure/HybridHospitalWideReadmissionFHIR","period":{"start":"2024-07-01","end":"2025-06-30"},"group":[{"population":[{"code":{"coding":[{"system":"http://terminology.hl7.org/CodeSystem/measure-population","code":"initial-population","display":"Initial Population"}]},"count":1}]}],"evaluatedResource":[{"reference":"https://madie.cms.gov/Patient/74bb606d-5f65-4c46-a682-8729e3bfd1dc"},{"reference":"Encounter/5dc2dbeb831f330000d742a9"},{"reference":"Coverage/5ddc410daef70c00005ba317"},{"reference":"Observation/5b7c54c2b84846299c81a4c7"},{"reference":"Organization/123456"},{"reference":"Practitioner/practitioner-123456"}]}}]},"request":{"method":"PUT","url":"Bundle/63ec09a4ccb3770120fea941"}}]}