{"resourceType":"Bundle","id":"tests-d5fa542a-e410-4939-a418-2f11f234be52-bundle","type":"transaction","entry":[{"resource":{"resourceType":"Bundle","id":"63ec09acccb3770120feb080","type":"collection","entry":[{"fullUrl":"https://madie.cms.gov/Patient/d5fa542a-e410-4939-a418-2f11f234be52","resource":{"resourceType":"Patient","id":"d5fa542a-e410-4939-a418-2f11f234be52","meta":{"profile":["http://hl7.org/fhir/us/qicore/StructureDefinition/qicore-patient"]},"text":{"status":"generated","div":"<div xmlns=\"http://www.w3.org/1999/xhtml\"><div class=\"hapiHeaderText\">GT24beforeAndGT24after <b>HEMATFAIL </b></div><table class=\"hapiPropertyTable\"><tbody><tr><td>Identifier</td><td>0b0b6c802130d5b66a3466c997a615f6beda2b53bbc78e8db2630bb4e261c989</td></tr><tr><td>Date of birth</td><td><span>21 June 1947</span></td></tr></tbody></table></div>"},"extension":[{"url":"http://hl7.org/fhir/us/core/StructureDefinition/us-core-race","extension":[{"url":"ombCategory","valueCoding":{"system":"urn:oid:2.16.840.1.113883.6.238","code":"2106-3","display":"White","userSelected":true}},{"url":"text","valueString":"White"}]},{"url":"http://hl7.org/fhir/us/core/StructureDefinition/us-core-ethnicity","extension":[{"url":"ombCategory","valueCoding":{"system":"urn:oid:2.16.840.1.113883.6.238","code":"2135-2","display":"Hispanic or Latino","userSelected":true}},{"url":"text","valueString":"Hispanic or Latino"}]}],"identifier":[{"type":{"coding":[{"system":"http://terminology.hl7.org/CodeSystem/v2-0203","code":"MR"}]},"system":"https://bonnie-fhir.healthit.gov/","value":"63ec09acccb3770120feb080"}],"active":true,"name":[{"use":"usual","family":"HematFail","given":["GT24beforeAndGT24after"]}],"gender":"male","birthDate":"1947-06-21"}},{"fullUrl":"5dc2dacd831f330000d740f1","resource":{"resourceType":"Encounter","id":"5dc2dacd831f330000d740f1","meta":{"profile":["http://hl7.org/fhir/us/qicore/StructureDefinition/qicore-encounter"]},"status":"finished","class":{"system":"http://terminology.hl7.org/CodeSystem/v3-ActCode","code":"NONAC","display":"Nonacute","userSelected":true},"type":[{"coding":[{"system":"http://snomed.info/sct","code":"183452005"}]}],"subject":{"reference":"Patient/d5fa542a-e410-4939-a418-2f11f234be52"},"period":{"start":"2024-08-21T08:00:00.000+00:00","end":"2024-08-22T08:15:00.000+00:00"}}},{"fullUrl":"5f98f491a916680000fb6c72","resource":{"resourceType":"Coverage","id":"5f98f491a916680000fb6c72","meta":{"profile":["http://hl7.org/fhir/us/qicore/StructureDefinition/qicore-coverage"]},"status":"active","type":{"coding":[{"system":"https://nahdo.org/sopt","version":"1.0.1","code":"1","display":"Medicare payer","userSelected":true}]},"beneficiary":{"reference":"Patient/d5fa542a-e410-4939-a418-2f11f234be52"},"payor":[{"reference":"Organization/123456"}]}},{"fullUrl":"5b55f69ab84846558c53bb4e","resource":{"resourceType":"Observation","id":"5b55f69ab84846558c53bb4e","meta":{"profile":["http://hl7.org/fhir/us/qicore/StructureDefinition/qicore-observation"]},"status":"final","category":[{"coding":[{"system":"http://terminology.hl7.org/CodeSystem/observation-category","code":"laboratory","display":"laboratory","userSelected":true}]}],"code":{"coding":[{"system":"http://loinc.org","code":"20570-8"}]},"subject":{"reference":"Patient/d5fa542a-e410-4939-a418-2f11f234be52"},"effectiveDateTime":"2024-08-20T07:59:00.000+00:00","valueQuantity":{"value":1.0}}},{"fullUrl":"5b55f69ab84846558c53bb50","resource":{"resourceType":"Observation","id":"5b55f69ab84846558c53bb50","meta":{"profile":["http://hl7.org/fhir/us/qicore/StructureDefinition/qicore-observation"]},"status":"final","category":[{"coding":[{"system":"http://terminology.hl7.org/CodeSystem/observation-category","code":"laboratory","display":"laboratory","userSelected":true}]}],"code":{"coding":[{"system":"http://loinc.org","code":"20570-8"}]},"subject":{"reference":"Patient/d5fa542a-e410-4939-a418-2f11f234be52"},"effectiveDateTime":"2024-08-22T08:01:00.000+00:00","valueQuantity":{"value":2.0}}},{"fullUrl":"http://Organization/123456","resource":{"resourceType":"Organization","id":"123456","meta":{"profile":["http://hl7.org/fhir/us/qicore/StructureDefinition/qicore-organization"]},"identifier":[{"use":"temp","system":"urn:oid:2.16.840.1.113883.4.4","value":"21-3259825"}],"active":true,"type":[{"coding":[{"system":"http://terminology.hl7.org/CodeSystem/organization-type","code":"pay","display":"Payer"}]}],"name":"Blue Cross Blue Shield of Texas","telecom":[{"system":"phone","value":"(+1) 972-766-6900"}],"address":[{"use":"billing","type":"postal","line":["P.O. Box 660044"],"city":"Dallas","state":"TX","postalCode":"75266-0044","country":"USA"}]}},{"fullUrl":"http://Practitioner/123456","resource":{"resourceType":"Practitioner","id":"practitioner-123456","meta":{"profile":["http://hl7.org/fhir/us/qicore/StructureDefinition/qicore-practitioner"]},"identifier":[{"system":"http://hl7.org/fhir/sid/us-npi","value":"123456"}],"name":[{"family":"Evil","prefix":["Dr"]}]}},{"fullUrl":"https://madie.cms.gov/MeasureReport/638501714ba3d47c885c02ad/d5fa542a-e410-4939-a418-2f11f234be52","resource":{"resourceType":"MeasureReport","id":"3f489006-c938-41e2-b1c5-dac408cf6721","meta":{"profile":["http://hl7.org/fhir/us/cqfmeasures/StructureDefinition/test-case-cqfm"]},"contained":[{"resourceType":"Parameters","id":"GT24beforeAndGT24after-parameters","parameter":[{"name":"subject","valueString":"d5fa542a-e410-4939-a418-2f11f234be52"}]}],"extension":[{"url":"http://hl7.org/fhir/us/cqfmeasures/StructureDefinition/cqfm-inputParameters","valueReference":{"reference":"#GT24beforeAndGT24after-parameters"}},{"url":"http://hl7.org/fhir/us/cqfmeasures/StructureDefinition/cqfm-testCaseDescription","valueMarkdown":"Hematocrit lab tests taken over 1 days before start of encounter and over 1 day after start of encounter. \nNeither result is included in measure results. "}],"modifierExtension":[{"url":"http://hl7.org/fhir/us/cqfmeasures/StructureDefinition/cqfm-isTestCase","valueBoolean":true}],"status":"complete","type":"individual","measure":"http://ecqi.healthit.gov/ecqms/Measure/HybridHospitalWideReadmissionFHIR","period":{"start":"2024-07-01","end":"2025-06-30"},"group":[{"population":[{"code":{"coding":[{"system":"http://terminology.hl7.org/CodeSystem/measure-population","code":"initial-population","display":"Initial Population"}]},"count":1}]}],"evaluatedResource":[{"reference":"https://madie.cms.gov/Patient/d5fa542a-e410-4939-a418-2f11f234be52"},{"reference":"Encounter/5dc2dacd831f330000d740f1"},{"reference":"Coverage/5f98f491a916680000fb6c72"},{"reference":"Observation/5b55f69ab84846558c53bb4e"},{"reference":"Observation/5b55f69ab84846558c53bb50"},{"reference":"Organization/123456"},{"reference":"Practitioner/practitioner-123456"}]}}]},"request":{"method":"PUT","url":"Bundle/63ec09acccb3770120feb080"}}]}