{
  "id": "IPPFailEncB4MP",
  "resourceType": "Bundle",
  "type": "collection",
  "entry": [
    {
      "fullUrl": "IPPFailEncB4MP",
      "resource": {
        "id": "IPPFailEncB4MP",
        "meta": {
          "profile": [
            "http://hl7.org/fhir/us/qicore/StructureDefinition/qicore-patient"
          ]
        },
        "resourceType": "Patient",
        "text": {
          "status": "generated",
          "div": "<div xmlns=\"http://www.w3.org/1999/xhtml\"><div class=\"hapiHeaderText\">EncB4MP <b>IPPFAIL </b></div><table class=\"hapiPropertyTable\"><tbody><tr><td>Identifier</td><td>7592b753ea9652ea4df9928763a65677</td></tr><tr><td>Date of birth</td><td><span>21 August 1993</span></td></tr></tbody></table></div>"
        },
        "extension": [
          {
            "extension": [
              {
                "url": "ombCategory",
                "valueCoding": {
                  "system": "urn:oid:2.16.840.1.113883.6.238",
                  "code": "1002-5",
                  "display": "American Indian or Alaska Native",
                  "userSelected": true
                }
              },
              {
                "url": "text",
                "valueString": "American Indian or Alaska Native"
              }
            ],
            "url": "http://hl7.org/fhir/us/core/StructureDefinition/us-core-race"
          },
          {
            "extension": [
              {
                "url": "ombCategory",
                "valueCoding": {
                  "system": "urn:oid:2.16.840.1.113883.6.238",
                  "code": "2186-5",
                  "display": "Not Hispanic or Latino",
                  "userSelected": true
                }
              },
              {
                "url": "text",
                "valueString": "Not Hispanic or Latino"
              }
            ],
            "url": "http://hl7.org/fhir/us/core/StructureDefinition/us-core-ethnicity"
          }
        ],
        "identifier": [
          {
            "type": {
              "coding": [
                {
                  "system": "http://terminology.hl7.org/CodeSystem/v2-0203",
                  "code": "MR"
                }
              ]
            },
            "system": "https://bonnie-fhir.healthit.gov/",
            "value": "IPPFailEncB4MP"
          }
        ],
        "active": true,
        "name": [
          {
            "use": "usual",
            "family": "IPPFail",
            "given": [
              "EncB4MP"
            ]
          }
        ],
        "gender": "male",
        "birthDate": "1993-08-21"
      }
    },
    {
      "fullUrl": "5c954892b848462de0ae61aa",
      "resource": {
        "id": "5c954892b848462de0ae61aa",
        "resourceType": "Encounter",
        "meta": {
          "profile": [
            "http://hl7.org/fhir/us/qicore/StructureDefinition/qicore-encounter"
          ]
        },
        "status": "finished",
        "class": {
        	"system": "http://terminology.hl7.org/CodeSystem/v3-ActCode",
        	"code": "IMP",
        	"display": "inpatient encounter"
        },
        "type": [
          {
            "coding": [
              {
                "system": "http://snomed.info/sct",
                "code": "32485007"
              }
            ]
          }
        ],
        "subject": {
          "reference": "Patient/IPPFailEncB4MP"
        },
        "period": {
          "start": "2021-08-21T09:30:00+00:00",
          "end": "2021-12-19T10:30:00+00:00"
        },
        "length": {
          "value": 120.0,
          "unit": "days"
        },
        "diagnosis": [
			{
			  "condition": {
				"reference": "Condition/IschemicStrokeCondition"
			  },
			  "use": {
				"coding": [
				  {
					"system": "http://hl7.org/fhir/diagnosis-role",
					"code": "billing",
					"display": "Billing"
				  }
				]
			  },
			  "rank": 1
			}
		]
      }
    },
	  {
		"fullUrl": "http://local/Condition",
		"resource": {
    	  "resourceType": "Condition",
    	  "id": "IschemicStrokeCondition",
    	  "meta": {
    		"profile": [
    		  "http://hl7.org/fhir/us/qicore/StructureDefinition/qicore-condition"
    		]
    	  },
    	  "verificationStatus": {
    		"coding": [
    		  {
    			"system": "http://terminology.hl7.org/CodeSystem/condition-ver-status",
    			"code": "confirmed",
    			"display": "Confirmed"
    		  }
    		]
    	  },
    	  "category": [
    		{
    		  "coding": [
    			{
    			  "system": "http://terminology.hl7.org/CodeSystem/condition-category",
    			  "code": "encounter-diagnosis",
    			  "display": "Encounter Diagnosis"
    			}
    		  ]
    		}
    	  ],
    	  "code": {
    		"coding": [
    		  {
    			"system": "http://snomed.info/sct",
    			"code": "116288000",
    			"display": "Paralytic stroke (disorder)"
    		  }
    		]
    	  },
    	  "subject": {
    		"reference": "Patient/IPPFailEncB4MP"
    	  }
    	}
	  },
    {
      "fullUrl": "5e20a3661c76ba6c5896ebb3",
      "resource": {
        "id": "5e20a3661c76ba6c5896ebb3",
        "resourceType": "Coverage",
    		"status": "active",
    		"payor": [{
        		"reference": "Patient/IPPFailEncB4MP"
        }],
        "beneficiary": {
          "reference": "Patient/IPPFailEncB4MP"
        },
        "period": {
          "start": "1993-08-21T07:00:00+00:00"
        }
      }
    }
  ]
}