{"resourceType":"Bundle","id":"tests-e4ad8ac6-e4c4-4e9f-acbb-4e345c8a84ad-bundle","type":"transaction","entry":[{"resource":{"resourceType":"Bundle","id":"641379da4b11b147841ab8ee","type":"collection","entry":[{"fullUrl":"https://madie.cms.gov/Patient/e4ad8ac6-e4c4-4e9f-acbb-4e345c8a84ad","resource":{"resourceType":"Patient","id":"e4ad8ac6-e4c4-4e9f-acbb-4e345c8a84ad","meta":{"profile":["http://hl7.org/fhir/us/qicore/StructureDefinition/qicore-patient"]},"extension":[{"url":"http://hl7.org/fhir/us/core/StructureDefinition/us-core-race","extension":[{"url":"ombCategory","valueCoding":{"system":"urn:oid:2.16.840.1.113883.6.238","code":"1002-5","display":"American Indian or Alaska Native","userSelected":true}},{"url":"text","valueString":"American Indian or Alaska Native"}]},{"url":"http://hl7.org/fhir/us/core/StructureDefinition/us-core-ethnicity","extension":[{"url":"ombCategory","valueCoding":{"system":"urn:oid:2.16.840.1.113883.6.238","code":"2186-5","display":"Not Hispanic or Latino","userSelected":true}},{"url":"text","valueString":"Not Hispanic or Latino"}]}],"identifier":[{"type":{"coding":[{"system":"http://terminology.hl7.org/CodeSystem/v2-0203","code":"MR"}]},"system":"https://bonnie-fhir.healthit.gov/","value":"641379da4b11b147841ab8ee"}],"name":[{"family":"DENOMFail","given":["PreventativeCareVisitAfterMP"]}],"gender":"female","birthDate":"2003-07-12"}},{"fullUrl":"diabetes-b8ef","resource":{"resourceType":"Condition","id":"diabetes-b8ef","meta":{"profile":["http://hl7.org/fhir/us/qicore/StructureDefinition/qicore-condition"]},"clinicalStatus":{"coding":[{"system":"http://terminology.hl7.org/CodeSystem/condition-clinical","code":"active","display":"active","userSelected":true}]},"category":[{"coding":[{"system":"http://terminology.hl7.org/CodeSystem/condition-category","code":"encounter-diagnosis","display":"Encounter Diagnosis","userSelected":true}]}],"code":{"coding":[{"system":"http://snomed.info/sct","version":"2021-09","code":"102781000119107","display":"Sensory neuropathy due to type 1 diabetes mellitus (disorder)","userSelected":true}]},"subject":{"reference":"Patient/e4ad8ac6-e4c4-4e9f-acbb-4e345c8a84ad"},"onsetDateTime":"2024-03-16T08:00:00.000+00:00"}},{"fullUrl":"preventive-care-services-established-office-visit-18-and-up-b8f0","resource":{"resourceType":"Encounter","id":"preventive-care-services-established-office-visit-18-and-up-b8f0","meta":{"profile":["http://hl7.org/fhir/us/qicore/StructureDefinition/qicore-encounter"]},"status":"finished","class":{"system":"http://terminology.hl7.org/CodeSystem/v3-ActCode","code":"AMB","display":"ambulatory","userSelected":true},"type":[{"coding":[{"system":"http://www.ama-assn.org/go/cpt","version":"2021","code":"99395","display":"Periodic comprehensive preventive medicine reevaluation and management of an individual including an age and gender appropriate history, examination, counseling/anticipatory guidance/risk factor reduction interventions, and the ordering of laboratory/diagnostic procedures, established patient; 18-39 years","userSelected":true}]}],"subject":{"reference":"Patient/e4ad8ac6-e4c4-4e9f-acbb-4e345c8a84ad"},"period":{"start":"2025-01-04T08:00:00.000+00:00","end":"2025-01-04T08:15:00.000+00:00"}}},{"fullUrl":"https://madie.cms.gov/MeasureReport/638500824ba3d47c885c02a9/e4ad8ac6-e4c4-4e9f-acbb-4e345c8a84ad","resource":{"resourceType":"MeasureReport","id":"35f0493a-6f77-4893-8ea5-cf9ecb8ffab2","meta":{"profile":["http://hl7.org/fhir/us/cqfmeasures/StructureDefinition/test-case-cqfm"]},"contained":[{"resourceType":"Parameters","id":"PreventativeCareVisitAfterMP-parameters","parameter":[{"name":"subject","valueString":"e4ad8ac6-e4c4-4e9f-acbb-4e345c8a84ad"}]}],"extension":[{"url":"http://hl7.org/fhir/us/cqfmeasures/StructureDefinition/cqfm-inputParameters","valueReference":{"reference":"#PreventativeCareVisitAfterMP-parameters"}},{"url":"http://hl7.org/fhir/us/cqfmeasures/StructureDefinition/cqfm-testCaseDescription","valueMarkdown":"This patient is 20 years old, and with active diabetes diagnosis but no qualifying encounter. This case tests the encounter criteria of the Denom. "}],"modifierExtension":[{"url":"http://hl7.org/fhir/us/cqfmeasures/StructureDefinition/cqfm-isTestCase","valueBoolean":true}],"status":"complete","type":"individual","measure":"http://ecqi.healthit.gov/ecqms/Measure/KidneyHealthEvaluationFHIR","period":{"start":"2024-01-01","end":"2024-12-31"},"group":[{"population":[{"code":{"coding":[{"system":"http://terminology.hl7.org/CodeSystem/measure-population","code":"initial-population","display":"Initial Population"}]},"count":0},{"code":{"coding":[{"system":"http://terminology.hl7.org/CodeSystem/measure-population","code":"denominator","display":"Denominator"}]},"count":0},{"code":{"coding":[{"system":"http://terminology.hl7.org/CodeSystem/measure-population","code":"denominator-exclusion","display":"Denominator Exclusion"}]},"count":0},{"code":{"coding":[{"system":"http://terminology.hl7.org/CodeSystem/measure-population","code":"numerator","display":"Numerator"}]},"count":0}]}],"evaluatedResource":[{"reference":"https://madie.cms.gov/Patient/e4ad8ac6-e4c4-4e9f-acbb-4e345c8a84ad"},{"reference":"Condition/diabetes-b8ef"},{"reference":"Encounter/preventive-care-services-established-office-visit-18-and-up-b8f0"}]}}]},"request":{"method":"PUT","url":"Bundle/641379da4b11b147841ab8ee"}}]}