{"resourceType":"Bundle","id":"tests-2a7112e7-5937-4288-9271-cdc2d7e5eaa4-bundle","type":"transaction","entry":[{"resource":{"resourceType":"Bundle","id":"641366a64b11b147841ab89f","type":"collection","entry":[{"fullUrl":"https://madie.cms.gov/Patient/2a7112e7-5937-4288-9271-cdc2d7e5eaa4","resource":{"resourceType":"Patient","id":"2a7112e7-5937-4288-9271-cdc2d7e5eaa4","meta":{"profile":["http://hl7.org/fhir/us/qicore/StructureDefinition/qicore-patient"]},"extension":[{"url":"http://hl7.org/fhir/us/core/StructureDefinition/us-core-race","extension":[{"url":"ombCategory","valueCoding":{"system":"urn:oid:2.16.840.1.113883.6.238","code":"2076-8","display":"Native Hawaiian or Other Pacific Islander","userSelected":true}},{"url":"text","valueString":"Native Hawaiian or Other Pacific Islander"}]},{"url":"http://hl7.org/fhir/us/core/StructureDefinition/us-core-ethnicity","extension":[{"url":"ombCategory","valueCoding":{"system":"urn:oid:2.16.840.1.113883.6.238","code":"2186-5","display":"Not Hispanic or Latino","userSelected":true}},{"url":"text","valueString":"Not Hispanic or Latino"}]}],"identifier":[{"type":{"coding":[{"system":"http://terminology.hl7.org/CodeSystem/v2-0203","code":"MR"}]},"system":"https://bonnie-fhir.healthit.gov/","value":"641366a64b11b147841ab89f"}],"name":[{"family":"DENEXPass","given":["DischargeHomeHosp"]}],"gender":"male","birthDate":"1963-03-22"}},{"fullUrl":"diabetes-b898","resource":{"resourceType":"Condition","id":"diabetes-b898","meta":{"profile":["http://hl7.org/fhir/us/qicore/StructureDefinition/qicore-condition"]},"clinicalStatus":{"coding":[{"system":"http://terminology.hl7.org/CodeSystem/condition-clinical","code":"active","display":"active","userSelected":true}]},"category":[{"coding":[{"system":"http://terminology.hl7.org/CodeSystem/condition-category","code":"encounter-diagnosis","display":"Encounter Diagnosis","userSelected":true}]}],"code":{"coding":[{"system":"http://snomed.info/sct","version":"2021-09","code":"102781000119107","display":"Sensory neuropathy due to type 1 diabetes mellitus (disorder)","userSelected":true}]},"subject":{"reference":"Patient/2a7112e7-5937-4288-9271-cdc2d7e5eaa4"},"onsetDateTime":"2024-03-01T08:00:00.000+00:00"}},{"fullUrl":"encounter-inpatient-b899","resource":{"resourceType":"Encounter","id":"encounter-inpatient-b899","meta":{"profile":["http://hl7.org/fhir/us/qicore/StructureDefinition/qicore-encounter"]},"status":"finished","class":{"system":"http://terminology.hl7.org/CodeSystem/v3-ActCode","code":"AMB","display":"ambulatory","userSelected":true},"type":[{"coding":[{"system":"http://snomed.info/sct","version":"2021-09","code":"183452005","display":"Emergency hospital admission (procedure)","userSelected":true}]}],"subject":{"reference":"Patient/2a7112e7-5937-4288-9271-cdc2d7e5eaa4"},"period":{"start":"2024-01-13T08:00:00.000+00:00","end":"2024-01-13T08:15:00.000+00:00"},"hospitalization":{"dischargeDisposition":{"coding":[{"system":"http://snomed.info/sct","code":"428361000124107","display":"Discharge to home for hospice care (procedure)","userSelected":true}]}}}},{"fullUrl":"annual-wellness-visit-b89a","resource":{"resourceType":"Encounter","id":"annual-wellness-visit-b89a","meta":{"profile":["http://hl7.org/fhir/us/qicore/StructureDefinition/qicore-encounter"]},"status":"finished","class":{"system":"http://terminology.hl7.org/CodeSystem/v3-ActCode","code":"AMB","display":"ambulatory","userSelected":true},"type":[{"coding":[{"system":"http://snomed.info/sct","version":"2021-09","code":"444971000124105","display":"Annual wellness visit (procedure)","userSelected":true}]}],"subject":{"reference":"Patient/2a7112e7-5937-4288-9271-cdc2d7e5eaa4"},"period":{"start":"2024-03-06T08:00:00.000+00:00","end":"2024-03-06T08:15:00.000+00:00"}}},{"fullUrl":"https://madie.cms.gov/MeasureReport/638500824ba3d47c885c02a9/2a7112e7-5937-4288-9271-cdc2d7e5eaa4","resource":{"resourceType":"MeasureReport","id":"65c800a6-242d-4cee-8288-6e2d857a8808","meta":{"profile":["http://hl7.org/fhir/us/cqfmeasures/StructureDefinition/test-case-cqfm"]},"contained":[{"resourceType":"Parameters","id":"DischargeHomeHosp-parameters","parameter":[{"name":"subject","valueString":"2a7112e7-5937-4288-9271-cdc2d7e5eaa4"}]}],"extension":[{"url":"http://hl7.org/fhir/us/cqfmeasures/StructureDefinition/cqfm-inputParameters","valueReference":{"reference":"#DischargeHomeHosp-parameters"}},{"url":"http://hl7.org/fhir/us/cqfmeasures/StructureDefinition/cqfm-testCaseDescription","valueMarkdown":"This patient is 71 years old with a qualifying encounter and active diabetes diagnosis, with a discharge to home for hospice care. This case tests the denominator exclusion criteria."}],"modifierExtension":[{"url":"http://hl7.org/fhir/us/cqfmeasures/StructureDefinition/cqfm-isTestCase","valueBoolean":true}],"status":"complete","type":"individual","measure":"http://ecqi.healthit.gov/ecqms/Measure/KidneyHealthEvaluationFHIR","period":{"start":"2024-01-01","end":"2024-12-31"},"group":[{"population":[{"code":{"coding":[{"system":"http://terminology.hl7.org/CodeSystem/measure-population","code":"initial-population","display":"Initial Population"}]},"count":1},{"code":{"coding":[{"system":"http://terminology.hl7.org/CodeSystem/measure-population","code":"denominator","display":"Denominator"}]},"count":1},{"code":{"coding":[{"system":"http://terminology.hl7.org/CodeSystem/measure-population","code":"denominator-exclusion","display":"Denominator Exclusion"}]},"count":1},{"code":{"coding":[{"system":"http://terminology.hl7.org/CodeSystem/measure-population","code":"numerator","display":"Numerator"}]},"count":0}]}],"evaluatedResource":[{"reference":"https://madie.cms.gov/Patient/2a7112e7-5937-4288-9271-cdc2d7e5eaa4"},{"reference":"Condition/diabetes-b898"},{"reference":"Encounter/encounter-inpatient-b899"},{"reference":"Encounter/annual-wellness-visit-b89a"}]}}]},"request":{"method":"PUT","url":"Bundle/641366a64b11b147841ab89f"}}]}