{"resourceType":"Bundle","id":"tests-f4d1182a-1c06-4c62-a0be-1f994c4343b3-bundle","type":"transaction","entry":[{"resource":{"resourceType":"Bundle","id":"64137bcb4b11b147841ab8fa","type":"collection","entry":[{"fullUrl":"https://madie.cms.gov/Patient/f4d1182a-1c06-4c62-a0be-1f994c4343b3","resource":{"resourceType":"Patient","id":"f4d1182a-1c06-4c62-a0be-1f994c4343b3","meta":{"profile":["http://hl7.org/fhir/us/qicore/StructureDefinition/qicore-patient"]},"extension":[{"url":"http://hl7.org/fhir/us/core/StructureDefinition/us-core-race","extension":[{"url":"ombCategory","valueCoding":{"system":"urn:oid:2.16.840.1.113883.6.238","code":"1002-5","display":"American Indian or Alaska Native","userSelected":true}},{"url":"text","valueString":"American Indian or Alaska Native"}]},{"url":"http://hl7.org/fhir/us/core/StructureDefinition/us-core-ethnicity","extension":[{"url":"ombCategory","valueCoding":{"system":"urn:oid:2.16.840.1.113883.6.238","code":"2135-2","display":"Hispanic or Latino","userSelected":true}},{"url":"text","valueString":"Hispanic or Latino"}]}],"identifier":[{"type":{"coding":[{"system":"http://terminology.hl7.org/CodeSystem/v2-0203","code":"MR"}]},"system":"https://bonnie-fhir.healthit.gov/","value":"64137bcb4b11b147841ab8fa"}],"name":[{"family":"DENOMPass","given":["EdgeAge18Jan1"]}],"gender":"female","birthDate":"2006-01-01"}},{"fullUrl":"diabetes-b8fb","resource":{"resourceType":"Condition","id":"diabetes-b8fb","meta":{"profile":["http://hl7.org/fhir/us/qicore/StructureDefinition/qicore-condition"]},"clinicalStatus":{"coding":[{"system":"http://terminology.hl7.org/CodeSystem/condition-clinical","code":"active","display":"active","userSelected":true}]},"category":[{"coding":[{"system":"http://terminology.hl7.org/CodeSystem/condition-category","code":"encounter-diagnosis","display":"Encounter Diagnosis","userSelected":true}]}],"code":{"coding":[{"system":"http://snomed.info/sct","version":"2021-09","code":"102781000119107","display":"Sensory neuropathy due to type 1 diabetes mellitus (disorder)","userSelected":true}]},"subject":{"reference":"Patient/f4d1182a-1c06-4c62-a0be-1f994c4343b3"},"onsetDateTime":"2024-01-18T08:00:00.000+00:00"}},{"fullUrl":"outpatient-consultation-b8fc","resource":{"resourceType":"Encounter","id":"outpatient-consultation-b8fc","meta":{"profile":["http://hl7.org/fhir/us/qicore/StructureDefinition/qicore-encounter"]},"status":"finished","class":{"system":"http://terminology.hl7.org/CodeSystem/v3-ActCode","code":"AMB","display":"ambulatory","userSelected":true},"type":[{"coding":[{"system":"http://snomed.info/sct","version":"2021-09","code":"281036007","display":"Follow-up consultation (procedure)","userSelected":true}]}],"subject":{"reference":"Patient/f4d1182a-1c06-4c62-a0be-1f994c4343b3"},"period":{"start":"2024-03-16T08:00:00.000+00:00","end":"2024-03-16T08:15:00.000+00:00"}}},{"fullUrl":"https://madie.cms.gov/MeasureReport/638500824ba3d47c885c02a9/f4d1182a-1c06-4c62-a0be-1f994c4343b3","resource":{"resourceType":"MeasureReport","id":"33df5dc6-2491-4f2c-be74-5724d0a03189","meta":{"profile":["http://hl7.org/fhir/us/cqfmeasures/StructureDefinition/test-case-cqfm"]},"contained":[{"resourceType":"Parameters","id":"EdgeAge18Jan1-parameters","parameter":[{"name":"subject","valueString":"f4d1182a-1c06-4c62-a0be-1f994c4343b3"}]}],"extension":[{"url":"http://hl7.org/fhir/us/cqfmeasures/StructureDefinition/cqfm-inputParameters","valueReference":{"reference":"#EdgeAge18Jan1-parameters"}},{"url":"http://hl7.org/fhir/us/cqfmeasures/StructureDefinition/cqfm-testCaseDescription","valueMarkdown":"This patient is 18 years old with a qualifying encounter and active diabetes diagnosis. This case tests the denominator criteria."}],"modifierExtension":[{"url":"http://hl7.org/fhir/us/cqfmeasures/StructureDefinition/cqfm-isTestCase","valueBoolean":true}],"status":"complete","type":"individual","measure":"http://ecqi.healthit.gov/ecqms/Measure/KidneyHealthEvaluationFHIR","period":{"start":"2024-01-01","end":"2024-12-31"},"group":[{"population":[{"code":{"coding":[{"system":"http://terminology.hl7.org/CodeSystem/measure-population","code":"initial-population","display":"Initial Population"}]},"count":1},{"code":{"coding":[{"system":"http://terminology.hl7.org/CodeSystem/measure-population","code":"denominator","display":"Denominator"}]},"count":1},{"code":{"coding":[{"system":"http://terminology.hl7.org/CodeSystem/measure-population","code":"denominator-exclusion","display":"Denominator Exclusion"}]},"count":0},{"code":{"coding":[{"system":"http://terminology.hl7.org/CodeSystem/measure-population","code":"numerator","display":"Numerator"}]},"count":0}]}],"evaluatedResource":[{"reference":"https://madie.cms.gov/Patient/f4d1182a-1c06-4c62-a0be-1f994c4343b3"},{"reference":"Condition/diabetes-b8fb"},{"reference":"Encounter/outpatient-consultation-b8fc"}]}}]},"request":{"method":"PUT","url":"Bundle/64137bcb4b11b147841ab8fa"}}]}