{
  "resourceType": "Bundle",
  "id": "617827e84bf8e25b8f204e17",
  "type": "collection",
  "entry": [ {
    "fullUrl": "https://madie.cms.gov/Patient/1581d864-2ee8-4789-ab20-743547353803",
    "resource": {
      "resourceType": "Patient",
      "id": "1581d864-2ee8-4789-ab20-743547353803",
      "meta": {
        "profile": [ "http://hl7.org/fhir/us/qicore/StructureDefinition/qicore-patient" ]
      },
      "extension": [ {
        "url": "http://hl7.org/fhir/us/core/StructureDefinition/us-core-race",
        "extension": [ {
          "url": "ombCategory",
          "valueCoding": {
            "system": "urn:oid:2.16.840.1.113883.6.238",
            "code": "2054-5",
            "display": "Black or African American",
            "userSelected": true
          }
        }, {
          "url": "text",
          "valueString": "Black or African American"
        } ]
      }, {
        "url": "http://hl7.org/fhir/us/core/StructureDefinition/us-core-ethnicity",
        "extension": [ {
          "url": "ombCategory",
          "valueCoding": {
            "system": "urn:oid:2.16.840.1.113883.6.238",
            "code": "2186-5",
            "display": "Not Hispanic or Latino",
            "userSelected": true
          }
        }, {
          "url": "text",
          "valueString": "Not Hispanic or Latino"
        } ]
      } ],
      "identifier": [ {
        "type": {
          "coding": [ {
            "system": "http://terminology.hl7.org/CodeSystem/v2-0203",
            "code": "MR"
          } ]
        },
        "system": "https://bonnie-fhir.healthit.gov/",
        "value": "617827e84bf8e25b8f204e17"
      } ],
      "name": [ {
        "family": "NumPass",
        "given": [ "PCI89minstartusingrelevantdateTime" ]
      } ],
      "gender": "female",
      "birthDate": "1984-12-02"
    }
  }, {
    "fullUrl": "emergency-department-visit-4e18",
    "resource": {
      "resourceType": "Encounter",
      "id": "emergency-department-visit-4e18",
      "meta": {
        "profile": [ "http://hl7.org/fhir/us/qicore/StructureDefinition/qicore-encounter" ]
      },
      "status": "finished",
      "class": {
        "system": "http://terminology.hl7.org/CodeSystem/v3-ActCode",
        "code": "EMER",
        "display": "emergency",
        "userSelected": true
      },
      "type": [ {
        "coding": [ {
          "system": "http://snomed.info/sct",
          "version": "2020-09",
          "code": "4525004",
          "display": "Emergency department patient visit (procedure)",
          "userSelected": true
        } ]
      } ],
      "subject": {
        "reference": "Patient/617827e84bf8e25b8f204e17"
      },
      "period": {
        "start": "2024-10-09T08:05:00.000+00:00",
        "end": "2024-10-10T07:15:00.000+00:00"
      },
      "reasonReference": [ {
        "reference": "Procedure/percutaneous-coronary-intervention-4e1b"
      } ],
      "diagnosis": [ {
        "condition": {
          "reference": "Condition/stemi-4e1a"
        }
      } ],
      "location": [ {
        "location": {
          "reference": "Location/Location-4e15"
        },
        "period": {
          "start": "2024-10-09T08:07:00.000+00:00",
          "end": "2024-10-10T07:13:00.000+00:00"
        }
      } ]
    }
  }, {
    "fullUrl": "Location-4e15",
    "resource": {
      "resourceType": "Location",
      "id": "Location-4e15",
      "meta": {
        "profile": [ "http://hl7.org/fhir/us/qicore/StructureDefinition/qicore-location" ]
      },
      "identifier": [ {
        "use": "usual",
        "system": "http://exampleoflocation.com",
        "value": "ED-1.R3"
      } ],
      "name": "Emergency Department, first floor",
      "type": [ {
        "coding": [ {
          "system": "http://snomed.info/sct",
          "version": "20210611",
          "code": "4525004",
          "display": "Emergency department patient visit (procedure)",
          "userSelected": true
        } ]
      }, {
        "coding": [ {
          "system": "http://terminology.hl7.org/CodeSystem/v3-RoleCode",
          "version": "2019",
          "code": "ER",
          "display": "Emergency room",
          "userSelected": true
        } ]
      }, {
        "coding": [ {
          "system": "http://cts.nlm.nih.gov/fhir/CodeSystem/hsloc",
          "version": "2022",
          "code": "1108-0",
          "display": "Emergency Department",
          "userSelected": true
        } ]
      } ]
    }
  }, {
    "fullUrl": "Condition/stemi-4e1a",
    "resource": {
      "resourceType": "Condition",
      "id": "stemi-4e1a",
      "meta": {
        "profile": [ "http://hl7.org/fhir/us/qicore/StructureDefinition/qicore-condition" ]
      },
      "clinicalStatus": {
        "coding": [ {
          "system": "http://terminology.hl7.org/CodeSystem/condition-clinical",
          "code": "active",
          "display": "active",
          "userSelected": true
        } ]
      },
      "category": [ {
        "coding": [ {
          "system": "http://terminology.hl7.org/CodeSystem/condition-category",
          "code": "encounter-diagnosis",
          "display": "Encounter Diagnosis",
          "userSelected": true
        } ]
      } ],
      "code": {
        "coding": [ {
          "system": "http://snomed.info/sct",
          "version": "2020-09",
          "code": "401303003",
          "display": "Acute ST segment elevation myocardial infarction (disorder)",
          "userSelected": true
        } ]
      },
      "subject": {
        "reference": "Patient/617827e84bf8e25b8f204e17"
      },
      "recordedDate": "2024-10-26T08:00:00.000+00:00"
    }
  }, {
    "fullUrl": "percutaneous-coronary-intervention-4e1b",
    "resource": {
      "resourceType": "Procedure",
      "id": "percutaneous-coronary-intervention-4e1b",
      "meta": {
        "profile": [ "http://hl7.org/fhir/us/qicore/StructureDefinition/qicore-procedure" ]
      },
      "extension": [ {
        "url": "http://hl7.org/fhir/us/qicore/StructureDefinition/qicore-recorded",
        "valueDateTime": "2024-10-09T09:34:00.000+00:00"
      } ],
      "status": "completed",
      "code": {
        "coding": [ {
          "system": "http://www.cms.gov/Medicare/Coding/ICD10",
          "version": "2021",
          "code": "0270346",
          "display": "Dilation of Coronary Artery, One Artery, Bifurcation, with Drug-eluting Intraluminal Device, Percutaneous Approach",
          "userSelected": true
        } ]
      },
      "subject": {
        "reference": "Patient/617827e84bf8e25b8f204e17"
      },
      "performedDateTime": "2024-10-09T09:34:00.000+00:00"
    }
  }, {
    "fullUrl": "https://madie.cms.gov/MeasureReport/6384fdb64ba3d47c885c02a7/1581d864-2ee8-4789-ab20-743547353803",
    "resource": {
      "resourceType": "MeasureReport",
      "id": "7ae9a3c6-8278-4403-853b-127eb7f55bac",
      "meta": {
        "profile": [ "http://hl7.org/fhir/us/cqfmeasures/StructureDefinition/test-case-cqfm" ]
      },
      "contained": [ {
        "resourceType": "Parameters",
        "id": "PCI89minstartusingrelevantdateTime-parameters",
        "parameter": [ {
          "name": "subject",
          "valueString": "1581d864-2ee8-4789-ab20-743547353803"
        } ]
      } ],
      "extension": [ {
        "url": "http://hl7.org/fhir/us/cqfmeasures/StructureDefinition/cqfm-inputParameters",
        "valueReference": {
          "reference": "#PCI89minstartusingrelevantdateTime-parameters"
        }
      }, {
        "url": "http://hl7.org/fhir/us/cqfmeasures/StructureDefinition/cqfm-testCaseDescription",
        "valueMarkdown": "PCI 89 minutes of start using relevantdateTime"
      } ],
      "modifierExtension": [ {
        "url": "http://hl7.org/fhir/us/cqfmeasures/StructureDefinition/cqfm-isTestCase",
        "valueBoolean": true
      } ],
      "status": "complete",
      "type": "individual",
      "measure": "http://ecqi.healthit.gov/ecqms/Measure/AppropriateTreatmentforSTEMIFHIR",
      "period": {
        "start": "2024-01-01",
        "end": "2024-12-31"
      },
      "group": [ {
        "population": [ {
          "code": {
            "coding": [ {
              "system": "http://terminology.hl7.org/CodeSystem/measure-population",
              "code": "initial-population",
              "display": "Initial Population"
            } ]
          },
          "count": 1
        }, {
          "code": {
            "coding": [ {
              "system": "http://terminology.hl7.org/CodeSystem/measure-population",
              "code": "denominator",
              "display": "Denominator"
            } ]
          },
          "count": 1
        }, {
          "code": {
            "coding": [ {
              "system": "http://terminology.hl7.org/CodeSystem/measure-population",
              "code": "denominator-exclusion",
              "display": "Denominator Exclusion"
            } ]
          },
          "count": 0
        }, {
          "code": {
            "coding": [ {
              "system": "http://terminology.hl7.org/CodeSystem/measure-population",
              "code": "numerator",
              "display": "Numerator"
            } ]
          },
          "count": 1
        } ]
      } ],
      "evaluatedResource": [ {
        "reference": "https://madie.cms.gov/Patient/1581d864-2ee8-4789-ab20-743547353803"
      }, {
        "reference": "Encounter/emergency-department-visit-4e18"
      }, {
        "reference": "Location/Location-4e15"
      }, {
        "reference": "Condition/stemi-4e1a"
      }, {
        "reference": "Procedure/percutaneous-coronary-intervention-4e1b"
      } ]
    }
  } ]
}