{
  "resourceType": "Bundle",
  "id": "6109658e98086b538055b9db",
  "type": "collection",
  "entry": [ {
    "fullUrl": "https://madie.cms.gov/Patient/2e8da2d1-f38b-4c84-af43-51378f5af1c5",
    "resource": {
      "resourceType": "Patient",
      "id": "2e8da2d1-f38b-4c84-af43-51378f5af1c5",
      "meta": {
        "profile": [ "http://hl7.org/fhir/us/qicore/StructureDefinition/qicore-patient" ]
      },
      "extension": [ {
        "url": "http://hl7.org/fhir/us/core/StructureDefinition/us-core-race",
        "extension": [ {
          "url": "ombCategory",
          "valueCoding": {
            "system": "urn:oid:2.16.840.1.113883.6.238",
            "code": "2054-5",
            "display": "Black or African American",
            "userSelected": true
          }
        }, {
          "url": "text",
          "valueString": "Black or African American"
        } ]
      }, {
        "url": "http://hl7.org/fhir/us/core/StructureDefinition/us-core-ethnicity",
        "extension": [ {
          "url": "ombCategory",
          "valueCoding": {
            "system": "urn:oid:2.16.840.1.113883.6.238",
            "code": "2186-5",
            "display": "Not Hispanic or Latino",
            "userSelected": true
          }
        }, {
          "url": "text",
          "valueString": "Not Hispanic or Latino"
        } ]
      } ],
      "identifier": [ {
        "type": {
          "coding": [ {
            "system": "http://terminology.hl7.org/CodeSystem/v2-0203",
            "code": "MR"
          } ]
        },
        "system": "https://GoodHealthCare.com",
        "value": "6109658e98086b538055b9db"
      } ],
      "active": true,
      "name": [ {
        "use": "usual",
        "family": "DENEXCEPFail",
        "given": [ "OpticExamMRB4EncEdge" ]
      } ],
      "gender": "male",
      "birthDate": "1982-08-12"
    }
  }, {
    "fullUrl": "http://GoodHealthCare.com/fhir/Condition/5c9a433bb8484623838502b4",
    "resource": {
      "resourceType": "Condition",
      "id": "5c9a433bb8484623838502b4",
      "meta": {
        "profile": [ "http://hl7.org/fhir/us/qicore/StructureDefinition/qicore-condition" ]
      },
      "clinicalStatus": {
        "coding": [ {
          "system": "http://terminology.hl7.org/CodeSystem/condition-clinical",
          "code": "active",
          "display": "active",
          "userSelected": true
        } ]
      },
      "category": [ {
        "coding": [ {
          "system": "http://terminology.hl7.org/CodeSystem/condition-category",
          "code": "encounter-diagnosis",
          "display": "Encounter Diagnosis",
          "userSelected": true
        } ]
      } ],
      "code": {
        "coding": [ {
          "system": "http://snomed.info/sct",
          "version": "http://snomed.info/sct/731000124108/version/20230301",
          "code": "50485007",
          "display": "Low tension glaucoma (disorder)"
        } ]
      },
      "subject": {
        "reference": "Patient/2e8da2d1-f38b-4c84-af43-51378f5af1c5"
      },
      "onsetDateTime": "2019-01-02T08:00:00+00:00"
    }
  }, {
    "fullUrl": "http://GoodHealthCare.com/fhir/Observation/5c9a433bb8484623838502b6",
    "resource": {
      "resourceType": "Observation",
      "id": "5c9a433bb8484623838502b6",
      "meta": {
        "profile": [ "http://hl7.org/fhir/us/qicore/StructureDefinition/qicore-observation" ]
      },
      "status": "final",
      "category": [ {
        "coding": [ {
          "system": "http://terminology.hl7.org/CodeSystem/observation-category",
          "code": "laboratory",
          "display": "Laboratory",
          "userSelected": true
        } ]
      } ],
      "code": {
        "coding": [ {
          "system": "http://loinc.org",
          "code": "71487-3"
        } ]
      },
      "subject": {
        "reference": "Patient/2e8da2d1-f38b-4c84-af43-51378f5af1c5"
      },
      "effectivePeriod": {
        "start": "2024-08-27T13:00:00.000+00:00",
        "end": "2024-08-27T13:15:00.000+00:00"
      },
      "valueString": "Documented, progressive thinning of the neuroretinal rim with an associated increase in cupping of the optic disc"
    }
  }, {
    "fullUrl": "http://GoodHealthCare.com/fhir/Observation/5c9a433bb8484623838502b8",
    "resource": {
      "resourceType": "Observation",
      "id": "5c9a433bb8484623838502b8",
      "meta": {
        "profile": [ "http://hl7.org/fhir/us/qicore/StructureDefinition/qicore-observationnotdone" ]
      },
      "extension": [ {
        "url": "http://hl7.org/fhir/us/qicore/StructureDefinition/qicore-notDoneReason",
        "valueCodeableConcept": {
          "coding": [ {
            "system": "http://snomed.info/sct",
            "version": "http://snomed.info/sct/731000124108/version/202303",
            "code": "410536001",
            "display": "Contraindicated (qualifier value)"
          } ]
        }
      } ],
      "status": "cancelled",
      "category": [ {
        "coding": [ {
          "system": "http://snomed.info/sct",
          "version": "http://snomed.info/sct/731000124108/version/202303",
          "code": "428119001",
          "display": "Procedure not indicated (situation)",
          "userSelected": true
        } ]
      } ],
      "code": {
        "coding": [ {
          "system": "http://loinc.org",
          "version": "2.73",
          "code": "71487-3"
        } ]
      },
      "subject": {
        "reference": "Patient/2e8da2d1-f38b-4c84-af43-51378f5af1c5"
      },
      "effectiveDateTime": "2024-05-05T04:59:00.000+00:00",
      "issued": "2024-05-05T04:59:00.000+00:00"
    }
  }, {
    "fullUrl": "http://GoodHealthCare.com/fhir/Encounter/5c9a433bb8484623838502b5",
    "resource": {
      "resourceType": "Encounter",
      "id": "5c9a433bb8484623838502b5",
      "meta": {
        "profile": [ "http://hl7.org/fhir/us/qicore/StructureDefinition/qicore-encounter" ]
      },
      "status": "finished",
      "class": {
        "system": "http://terminology.hl7.org/CodeSystem/v3-ActCode",
        "code": "AMB",
        "display": "ambulatory",
        "userSelected": true
      },
      "type": [ {
        "coding": [ {
          "system": "http://www.ama-assn.org/go/cpt",
          "code": "92002"
        } ]
      } ],
      "subject": {
        "reference": "Patient/2e8da2d1-f38b-4c84-af43-51378f5af1c5"
      },
      "period": {
        "start": "2024-05-05T05:00:00.000+00:00",
        "end": "2024-05-05T05:45:00.000+00:00"
      },
      "length": {
        "value": 0.0,
        "unit": "days"
      }
    }
  }, {
    "fullUrl": "https://madie.cms.gov/MeasureReport/6467cfd1be9def4e0b01b11a/2e8da2d1-f38b-4c84-af43-51378f5af1c5",
    "resource": {
      "resourceType": "MeasureReport",
      "id": "b20c5551-6e3d-4119-b217-d98e74a797f0",
      "meta": {
        "profile": [ "http://hl7.org/fhir/us/cqfmeasures/StructureDefinition/test-case-cqfm" ]
      },
      "contained": [ {
        "resourceType": "Parameters",
        "id": "OpticExamMRB4EncEdge-parameters",
        "parameter": [ {
          "name": "subject",
          "valueString": "2e8da2d1-f38b-4c84-af43-51378f5af1c5"
        } ]
      } ],
      "extension": [ {
        "url": "http://hl7.org/fhir/us/cqfmeasures/StructureDefinition/cqfm-inputParameters",
        "valueReference": {
          "reference": "#OpticExamMRB4EncEdge-parameters"
        }
      }, {
        "url": "http://hl7.org/fhir/us/cqfmeasures/StructureDefinition/cqfm-testCaseDescription",
        "valueMarkdown": "Medical Reason for not performing required Optic Exam is 1 minute before Encounter"
      } ],
      "modifierExtension": [ {
        "url": "http://hl7.org/fhir/us/cqfmeasures/StructureDefinition/cqfm-isTestCase",
        "valueBoolean": true
      } ],
      "status": "complete",
      "type": "individual",
      "measure": "http://ecqi.healthit.gov/ecqms/Measure/POAGOpticNerveEvaluationFHIR",
      "period": {
        "start": "2024-01-01",
        "end": "2024-12-31"
      },
      "group": [ {
        "population": [ {
          "code": {
            "coding": [ {
              "system": "http://terminology.hl7.org/CodeSystem/measure-population",
              "code": "initial-population",
              "display": "Initial Population"
            } ]
          },
          "count": 1
        }, {
          "code": {
            "coding": [ {
              "system": "http://terminology.hl7.org/CodeSystem/measure-population",
              "code": "denominator",
              "display": "Denominator"
            } ]
          },
          "count": 1
        }, {
          "code": {
            "coding": [ {
              "system": "http://terminology.hl7.org/CodeSystem/measure-population",
              "code": "denominator-exception",
              "display": "Denominator Exception"
            } ]
          },
          "count": 0
        }, {
          "code": {
            "coding": [ {
              "system": "http://terminology.hl7.org/CodeSystem/measure-population",
              "code": "numerator",
              "display": "Numerator"
            } ]
          },
          "count": 0
        } ]
      } ],
      "evaluatedResource": [ {
        "reference": "https://madie.cms.gov/Patient/2e8da2d1-f38b-4c84-af43-51378f5af1c5"
      }, {
        "reference": "http://GoodHealthCare.com/fhir/Condition/5c9a433bb8484623838502b4"
      }, {
        "reference": "http://GoodHealthCare.com/fhir/Observation/5c9a433bb8484623838502b6"
      }, {
        "reference": "http://GoodHealthCare.com/fhir/Observation/5c9a433bb8484623838502b8"
      }, {
        "reference": "http://GoodHealthCare.com/fhir/Encounter/5c9a433bb8484623838502b5"
      } ]
    }
  } ]
}