{"resourceType":"Bundle","id":"tests-e03fd6c9-9b4c-4814-9301-f22a28e4b1be-bundle","type":"transaction","entry":[{"resource":{"resourceType":"Bundle","id":"6495b468e06f07b7e1707815","type":"collection","entry":[{"fullUrl":"https://madie.cms.gov/Patient/e03fd6c9-9b4c-4814-9301-f22a28e4b1be","resource":{"resourceType":"Patient","id":"e03fd6c9-9b4c-4814-9301-f22a28e4b1be","meta":{"profile":["http://hl7.org/fhir/us/qicore/StructureDefinition/qicore-patient"]},"extension":[{"url":"http://hl7.org/fhir/us/core/StructureDefinition/us-core-race","extension":[{"url":"ombCategory","valueCoding":{"system":"urn:oid:2.16.840.1.113883.6.238","code":"2076-8","display":"Native Hawaiian or Other Pacific Islander","userSelected":true}},{"url":"text","valueString":"Native Hawaiian or Other Pacific Islander"}]},{"url":"http://hl7.org/fhir/us/core/StructureDefinition/us-core-ethnicity","extension":[{"url":"ombCategory","valueCoding":{"system":"urn:oid:2.16.840.1.113883.6.238","code":"2186-5","display":"Not Hispanic or Latino","userSelected":true}},{"url":"text","valueString":"Not Hispanic or Latino"}]}],"identifier":[{"type":{"coding":[{"system":"http://terminology.hl7.org/CodeSystem/v2-0203","code":"MR"}]},"system":"https://bonnie-fhir.healthit.gov/","value":"6495b468e06f07b7e1707815"}],"name":[{"family":"IPPass","given":["HIVDxincalyearbeforeMP"]}],"gender":"female","birthDate":"1986-05-25"}},{"fullUrl":"hiv-7816","resource":{"resourceType":"Condition","id":"hiv-7816","meta":{"profile":["http://hl7.org/fhir/us/qicore/StructureDefinition/qicore-condition"]},"category":[{"coding":[{"system":"http://terminology.hl7.org/CodeSystem/condition-category","code":"problem-list-item","display":"Problem List Item"}]}],"code":{"coding":[{"system":"http://hl7.org/fhir/sid/icd-9-cm","version":"2013","code":"042","display":"Human immunodeficiency virus [HIV] disease","userSelected":true},{"system":"http://snomed.info/sct","code":"165816005","userSelected":true}]},"subject":{"reference":"Patient/e03fd6c9-9b4c-4814-9301-f22a28e4b1be"},"onsetDateTime":"2023-12-02T13:00:00.000+00:00","recordedDate":"2023-12-02T13:00:00.000+00:00"}},{"fullUrl":"outpatient-consultation-7817","resource":{"resourceType":"Encounter","id":"outpatient-consultation-7817","meta":{"profile":["http://hl7.org/fhir/us/qicore/StructureDefinition/qicore-encounter"]},"status":"finished","class":{"system":"http://terminology.hl7.org/CodeSystem/v3-ActCode","code":"AMB","display":"ambulatory"},"type":[{"coding":[{"system":"http://snomed.info/sct","version":"2022-09","code":"281036007","display":"Follow-up consultation (procedure)","userSelected":true}]}],"subject":{"reference":"Patient/e03fd6c9-9b4c-4814-9301-f22a28e4b1be"},"period":{"start":"2024-03-07T10:00:00.000+00:00","end":"2024-03-07T10:45:00.000+00:00"}}},{"fullUrl":"http://coverage/1","resource":{"resourceType":"Coverage","id":"1","meta":{"profile":["http://hl7.org/fhir/us/qicore/StructureDefinition/qicore-coverage"]},"status":"active","beneficiary":{"reference":"Patient/e03fd6c9-9b4c-4814-9301-f22a28e4b1be"},"payor":[{"reference":"Organization/123456"}]}},{"fullUrl":"http://Organization/123456","resource":{"resourceType":"Organization","id":"123456","meta":{"profile":["http://hl7.org/fhir/us/qicore/StructureDefinition/qicore-organization"]},"identifier":[{"use":"temp","system":"urn:oid:2.16.840.1.113883.4.4","value":"21-3259825"}],"active":true,"type":[{"coding":[{"system":"http://terminology.hl7.org/CodeSystem/organization-type","code":"pay","display":"Payer"}]}],"name":"Blue Cross Blue Shield of Texas","telecom":[{"system":"phone","value":"(+1) 972-766-6900"}],"address":[{"use":"billing","type":"postal","line":["P.O. Box 660044"],"city":"Dallas","state":"TX","postalCode":"75266-0044","country":"USA"}]}},{"fullUrl":"http://Practitioner/123456","resource":{"resourceType":"Practitioner","id":"practitioner-123456","meta":{"profile":["http://hl7.org/fhir/us/qicore/StructureDefinition/qicore-practitioner"]},"identifier":[{"system":"http://hl7.org/fhir/sid/us-npi","value":"123456"}],"name":[{"family":"Evil","prefix":["Dr"]}]}},{"fullUrl":"https://madie.cms.gov/MeasureReport/64873a03be23a058642d5817/e03fd6c9-9b4c-4814-9301-f22a28e4b1be","resource":{"resourceType":"MeasureReport","id":"493a78a3-3cc1-45b2-b731-3b30746b486c","meta":{"profile":["http://hl7.org/fhir/us/cqfmeasures/StructureDefinition/test-case-cqfm"]},"contained":[{"resourceType":"Parameters","id":"HIVDxincalyearbeforeMP-parameters","parameter":[{"name":"subject","valueString":"e03fd6c9-9b4c-4814-9301-f22a28e4b1be"}]}],"extension":[{"url":"http://hl7.org/fhir/us/cqfmeasures/StructureDefinition/cqfm-inputParameters","valueReference":{"reference":"#HIVDxincalyearbeforeMP-parameters"}},{"url":"http://hl7.org/fhir/us/cqfmeasures/StructureDefinition/cqfm-testCaseDescription","valueMarkdown":"Patient with a diagnosis of HIV in the calendar year prior to the MP (2023) and a qualifying encounter during the measurement period "}],"modifierExtension":[{"url":"http://hl7.org/fhir/us/cqfmeasures/StructureDefinition/cqfm-isTestCase","valueBoolean":true}],"status":"complete","type":"individual","measure":"http://ecqi.healthit.gov/ecqms/Measure/HIVViralSuppressionFHIR","period":{"start":"2024-01-01","end":"2024-12-31"},"group":[{"population":[{"code":{"coding":[{"system":"http://terminology.hl7.org/CodeSystem/measure-population","code":"initial-population","display":"Initial Population"}]},"count":1},{"code":{"coding":[{"system":"http://terminology.hl7.org/CodeSystem/measure-population","code":"denominator","display":"Denominator"}]},"count":1},{"code":{"coding":[{"system":"http://terminology.hl7.org/CodeSystem/measure-population","code":"numerator","display":"Numerator"}]},"count":0}]}],"evaluatedResource":[{"reference":"https://madie.cms.gov/Patient/e03fd6c9-9b4c-4814-9301-f22a28e4b1be"},{"reference":"Condition/hiv-7816"},{"reference":"Encounter/outpatient-consultation-7817"},{"reference":"Coverage/1"},{"reference":"Organization/123456"},{"reference":"Practitioner/practitioner-123456"}]}}]},"request":{"method":"PUT","url":"Bundle/6495b468e06f07b7e1707815"}}]}