{
  "resourceType": "Bundle",
  "id": "6109654b98086b538055ad2a",
  "type": "collection",
  "entry": [ {
    "fullUrl": "https://madie.cms.gov/Patient/0a5107f9-6c0f-486d-8fbf-42b91e3dccba",
    "resource": {
      "resourceType": "Patient",
      "id": "0a5107f9-6c0f-486d-8fbf-42b91e3dccba",
      "meta": {
        "profile": [ "http://hl7.org/fhir/us/qicore/StructureDefinition/qicore-patient" ]
      },
      "text": {
        "status": "generated",
        "div": "<div xmlns=\"http://www.w3.org/1999/xhtml\"><div class=\"hapiHeaderText\">4Enc4RiskAssess <b>NUMERPASS </b></div><table class=\"hapiPropertyTable\"><tbody><tr><td>Identifier</td><td>3cdf52a1f1733f965513eb184afa2456bf472848c5febb171c76b8a0c4c9695c</td></tr><tr><td>Date of birth</td><td><span>02 January 1990</span></td></tr></tbody></table></div>"
      },
      "extension": [ {
        "url": "http://hl7.org/fhir/us/core/StructureDefinition/us-core-race",
        "extension": [ {
          "url": "ombCategory",
          "valueCoding": {
            "system": "urn:oid:2.16.840.1.113883.6.238",
            "code": "1002-5",
            "display": "American Indian or Alaska Native",
            "userSelected": true
          }
        }, {
          "url": "text",
          "valueString": "American Indian or Alaska Native"
        } ]
      }, {
        "url": "http://hl7.org/fhir/us/core/StructureDefinition/us-core-ethnicity",
        "extension": [ {
          "url": "ombCategory",
          "valueCoding": {
            "system": "urn:oid:2.16.840.1.113883.6.238",
            "code": "2186-5",
            "display": "Not Hispanic or Latino",
            "userSelected": true
          }
        }, {
          "url": "text",
          "valueString": "Not Hispanic or Latino"
        } ]
      } ],
      "identifier": [ {
        "type": {
          "coding": [ {
            "system": "http://terminology.hl7.org/CodeSystem/v2-0203",
            "code": "MR"
          } ]
        },
        "system": "https://bonnie-fhir.healthit.gov/",
        "value": "6109654b98086b538055ad2a"
      } ],
      "active": true,
      "name": [ {
        "use": "usual",
        "family": "NUMPass",
        "given": [ "4Enc4RiskAssess" ]
      } ],
      "gender": "female",
      "birthDate": "2002-01-02"
    }
  }, {
    "fullUrl": "5c98fd74b848464ed33ea080",
    "resource": {
      "resourceType": "Encounter",
      "id": "5c98fd74b848464ed33ea080",
      "meta": {
        "profile": [ "http://hl7.org/fhir/us/qicore/StructureDefinition/qicore-encounter" ]
      },
      "status": "finished",
      "class": {
        "system": "http://terminology.hl7.org/CodeSystem/v3-ActCode",
        "code": "AMB",
        "display": "ambulatory",
        "userSelected": true
      },
      "type": [ {
        "coding": [ {
          "system": "http://www.ama-assn.org/go/cpt",
          "code": "90832"
        } ]
      } ],
      "subject": {
        "reference": "Patient/0a5107f9-6c0f-486d-8fbf-42b91e3dccba"
      },
      "period": {
        "start": "2024-01-02T08:00:00.000+00:00",
        "end": "2024-01-02T08:15:00.000+00:00"
      },
      "length": {
        "value": 0.0,
        "unit": "days"
      },
      "reasonCode": [ {
        "coding": [ {
          "system": "http://snomed.info/sct",
          "version": "2022-09",
          "code": "10811161000119107",
          "display": "Major depressive disorder in mother complicating pregnancy (disorder)",
          "userSelected": true
        } ]
      } ],
      "diagnosis": [ {
        "condition": {
          "reference": "Condition/major-depressive-disorder-active-8bb9"
        },
        "use": {
          "coding": [ {
            "system": "http://snomed.info/sct",
            "version": "2022-09",
            "code": "10811161000119107",
            "display": "Major depressive disorder in mother complicating pregnancy (disorder)",
            "userSelected": true
          } ]
        }
      } ]
    }
  }, {
    "fullUrl": "5c98fd74b848464ed33ea081",
    "resource": {
      "resourceType": "Encounter",
      "id": "5c98fd74b848464ed33ea081",
      "meta": {
        "profile": [ "http://hl7.org/fhir/us/qicore/StructureDefinition/qicore-encounter" ]
      },
      "status": "finished",
      "class": {
        "system": "http://terminology.hl7.org/CodeSystem/v3-ActCode",
        "code": "AMB",
        "display": "ambulatory",
        "userSelected": true
      },
      "type": [ {
        "coding": [ {
          "system": "http://www.ama-assn.org/go/cpt",
          "code": "98966"
        } ]
      } ],
      "subject": {
        "reference": "Patient/0a5107f9-6c0f-486d-8fbf-42b91e3dccba"
      },
      "period": {
        "start": "2024-01-05T08:00:00.000+00:00",
        "end": "2024-01-05T08:15:00.000+00:00"
      },
      "length": {
        "value": 0.0,
        "unit": "days"
      },
      "reasonCode": [ {
        "coding": [ {
          "system": "http://snomed.info/sct",
          "version": "2022-09",
          "code": "10811161000119107",
          "display": "Major depressive disorder in mother complicating pregnancy (disorder)",
          "userSelected": true
        } ]
      } ],
      "diagnosis": [ {
        "condition": {
          "reference": "Condition/major-depressive-disorder-active-8bba"
        },
        "use": {
          "coding": [ {
            "system": "http://snomed.info/sct",
            "version": "2022-09",
            "code": "10811161000119107",
            "display": "Major depressive disorder in mother complicating pregnancy (disorder)",
            "userSelected": true
          } ]
        }
      } ]
    }
  }, {
    "fullUrl": "5c98fd74b848464ed33ea082",
    "resource": {
      "resourceType": "Encounter",
      "id": "5c98fd74b848464ed33ea082",
      "meta": {
        "profile": [ "http://hl7.org/fhir/us/qicore/StructureDefinition/qicore-encounter" ]
      },
      "status": "finished",
      "class": {
        "system": "http://terminology.hl7.org/CodeSystem/v3-ActCode",
        "code": "AMB",
        "display": "ambulatory",
        "userSelected": true
      },
      "type": [ {
        "coding": [ {
          "system": "http://snomed.info/sct",
          "code": "4525004"
        }, {
          "system": "http://www.ama-assn.org/go/cpt",
          "code": "99281"
        } ]
      } ],
      "subject": {
        "reference": "Patient/0a5107f9-6c0f-486d-8fbf-42b91e3dccba"
      },
      "period": {
        "start": "2024-05-10T08:00:00.000+00:00",
        "end": "2024-05-10T08:15:00.000+00:00"
      },
      "length": {
        "value": 0.0,
        "unit": "days"
      },
      "reasonCode": [ {
        "coding": [ {
          "system": "http://snomed.info/sct",
          "version": "2022-09",
          "code": "10811161000119107",
          "display": "Major depressive disorder in mother complicating pregnancy (disorder)",
          "userSelected": true
        } ]
      } ],
      "diagnosis": [ {
        "condition": {
          "reference": "Condition/major-depressive-disorder-active-8bbb"
        },
        "use": {
          "coding": [ {
            "system": "http://snomed.info/sct",
            "version": "2022-09",
            "code": "10811161000119107",
            "display": "Major depressive disorder in mother complicating pregnancy (disorder)",
            "userSelected": true
          } ]
        }
      } ]
    }
  }, {
    "fullUrl": "5c98fd74b848464ed33ea083",
    "resource": {
      "resourceType": "Encounter",
      "id": "5c98fd74b848464ed33ea083",
      "meta": {
        "profile": [ "http://hl7.org/fhir/us/qicore/StructureDefinition/qicore-encounter" ]
      },
      "status": "finished",
      "class": {
        "system": "http://terminology.hl7.org/CodeSystem/v3-ActCode",
        "code": "AMB",
        "display": "ambulatory",
        "userSelected": true
      },
      "type": [ {
        "coding": [ {
          "system": "http://snomed.info/sct",
          "code": "77406008",
          "userSelected": true
        } ]
      } ],
      "subject": {
        "reference": "Patient/0a5107f9-6c0f-486d-8fbf-42b91e3dccba"
      },
      "period": {
        "start": "2024-09-01T08:00:00.000+00:00",
        "end": "2024-09-01T08:15:00.000+00:00"
      },
      "length": {
        "value": 0.0,
        "unit": "days"
      },
      "reasonCode": [ {
        "coding": [ {
          "system": "http://snomed.info/sct",
          "version": "2022-09",
          "code": "10811161000119107",
          "display": "Major depressive disorder in mother complicating pregnancy (disorder)",
          "userSelected": true
        } ]
      } ],
      "diagnosis": [ {
        "condition": {
          "reference": "Condition/major-depressive-disorder-active-8bbc"
        },
        "use": {
          "coding": [ {
            "system": "http://snomed.info/sct",
            "version": "2022-09",
            "code": "10811161000119107",
            "display": "Major depressive disorder in mother complicating pregnancy (disorder)",
            "userSelected": true
          } ]
        }
      } ]
    }
  }, {
    "fullUrl": "5c98fd74b848464ed33ea084",
    "resource": {
      "resourceType": "Encounter",
      "id": "5c98fd74b848464ed33ea084",
      "meta": {
        "profile": [ "http://hl7.org/fhir/us/qicore/StructureDefinition/qicore-encounter" ]
      },
      "status": "finished",
      "class": {
        "system": "http://terminology.hl7.org/CodeSystem/v3-ActCode",
        "code": "AMB",
        "display": "ambulatory",
        "userSelected": true
      },
      "type": [ {
        "coding": [ {
          "system": "http://www.ama-assn.org/go/cpt",
          "code": "99243",
          "userSelected": true
        } ]
      } ],
      "subject": {
        "reference": "Patient/0a5107f9-6c0f-486d-8fbf-42b91e3dccba"
      },
      "period": {
        "start": "2024-09-05T08:00:00.000+00:00",
        "end": "2024-09-05T08:15:00.000+00:00"
      },
      "length": {
        "value": 0.0,
        "unit": "days"
      }
    }
  }, {
    "fullUrl": "5c98fd74b848464ed33ea085",
    "resource": {
      "resourceType": "Encounter",
      "id": "5c98fd74b848464ed33ea085",
      "meta": {
        "profile": [ "http://hl7.org/fhir/us/qicore/StructureDefinition/qicore-encounter" ]
      },
      "status": "finished",
      "class": {
        "system": "http://terminology.hl7.org/CodeSystem/v3-ActCode",
        "code": "AMB",
        "display": "ambulatory",
        "userSelected": true
      },
      "type": [ {
        "coding": [ {
          "system": "http://snomed.info/sct",
          "code": "281036007",
          "userSelected": true
        } ]
      } ],
      "subject": {
        "reference": "Patient/0a5107f9-6c0f-486d-8fbf-42b91e3dccba"
      },
      "period": {
        "start": "2024-12-20T08:00:00.000+00:00",
        "end": "2024-12-20T08:15:00.000+00:00"
      },
      "length": {
        "value": 0.0,
        "unit": "days"
      },
      "reasonCode": [ {
        "coding": [ {
          "system": "http://snomed.info/sct",
          "version": "2022-09",
          "code": "10811161000119107",
          "display": "Major depressive disorder in mother complicating pregnancy (disorder)",
          "userSelected": true
        } ]
      } ],
      "diagnosis": [ {
        "condition": {
          "reference": "Condition/major-depressive-disorder-active-8bbd"
        },
        "use": {
          "coding": [ {
            "system": "http://snomed.info/sct",
            "version": "2022-09",
            "code": "10811161000119107",
            "display": "Major depressive disorder in mother complicating pregnancy (disorder)",
            "userSelected": true
          } ]
        }
      } ]
    }
  }, {
    "fullUrl": "5c98fd74b848464ed33ea086",
    "resource": {
      "resourceType": "Procedure",
      "id": "5c98fd74b848464ed33ea086",
      "meta": {
        "profile": [ "http://hl7.org/fhir/us/qicore/StructureDefinition/qicore-procedure" ]
      },
      "extension": [ {
        "url": "http://hl7.org/fhir/us/qicore/StructureDefinition/qicore-recorded",
        "valueDateTime": "2024-01-02T08:00:00.000Z"
      } ],
      "status": "completed",
      "code": {
        "coding": [ {
          "system": "http://snomed.info/sct",
          "code": "225337009"
        } ]
      },
      "subject": {
        "reference": "Patient/0a5107f9-6c0f-486d-8fbf-42b91e3dccba"
      },
      "performedDateTime": "2024-01-02T08:00:00.000+00:00"
    }
  }, {
    "fullUrl": "5c98fd74b848464ed33ea087",
    "resource": {
      "resourceType": "Procedure",
      "id": "5c98fd74b848464ed33ea087",
      "meta": {
        "profile": [ "http://hl7.org/fhir/us/qicore/StructureDefinition/qicore-procedure" ]
      },
      "extension": [ {
        "url": "http://hl7.org/fhir/us/qicore/StructureDefinition/qicore-recorded",
        "valueDateTime": "2024-01-05T08:00:00.000Z"
      } ],
      "status": "completed",
      "code": {
        "coding": [ {
          "system": "http://snomed.info/sct",
          "code": "225337009"
        } ]
      },
      "subject": {
        "reference": "Patient/0a5107f9-6c0f-486d-8fbf-42b91e3dccba"
      },
      "performedDateTime": "2024-01-05T08:00:00.000+00:00"
    }
  }, {
    "fullUrl": "5c98fd74b848464ed33ea088",
    "resource": {
      "resourceType": "Procedure",
      "id": "5c98fd74b848464ed33ea088",
      "meta": {
        "profile": [ "http://hl7.org/fhir/us/qicore/StructureDefinition/qicore-procedure" ]
      },
      "extension": [ {
        "url": "http://hl7.org/fhir/us/qicore/StructureDefinition/qicore-recorded",
        "valueDateTime": "2024-05-10T08:00:00.000Z"
      } ],
      "status": "completed",
      "code": {
        "coding": [ {
          "system": "http://snomed.info/sct",
          "code": "225337009"
        } ]
      },
      "subject": {
        "reference": "Patient/0a5107f9-6c0f-486d-8fbf-42b91e3dccba"
      },
      "performedDateTime": "2024-05-10T08:00:00.000+00:00"
    }
  }, {
    "fullUrl": "5c98fd74b848464ed33ea089",
    "resource": {
      "resourceType": "Procedure",
      "id": "5c98fd74b848464ed33ea089",
      "meta": {
        "profile": [ "http://hl7.org/fhir/us/qicore/StructureDefinition/qicore-procedure" ]
      },
      "extension": [ {
        "url": "http://hl7.org/fhir/us/qicore/StructureDefinition/qicore-recorded",
        "valueDateTime": "2024-09-01T08:00:00.000Z"
      } ],
      "status": "completed",
      "code": {
        "coding": [ {
          "system": "http://snomed.info/sct",
          "code": "225337009"
        } ]
      },
      "subject": {
        "reference": "Patient/0a5107f9-6c0f-486d-8fbf-42b91e3dccba"
      },
      "performedDateTime": "2024-09-01T08:00:00.000+00:00"
    }
  }, {
    "fullUrl": "5c98fd74b848464ed33ea08a",
    "resource": {
      "resourceType": "Procedure",
      "id": "5c98fd74b848464ed33ea08a",
      "meta": {
        "profile": [ "http://hl7.org/fhir/us/qicore/StructureDefinition/qicore-procedure" ]
      },
      "extension": [ {
        "url": "http://hl7.org/fhir/us/qicore/StructureDefinition/qicore-recorded",
        "valueDateTime": "2024-09-05T08:00:00.000Z"
      } ],
      "status": "completed",
      "code": {
        "coding": [ {
          "system": "http://snomed.info/sct",
          "code": "225337009"
        } ]
      },
      "subject": {
        "reference": "Patient/0a5107f9-6c0f-486d-8fbf-42b91e3dccba"
      },
      "performedDateTime": "2024-09-05T08:00:00.000+00:00"
    }
  }, {
    "fullUrl": "5c98fd74b848464ed33ea08b",
    "resource": {
      "resourceType": "Procedure",
      "id": "5c98fd74b848464ed33ea08b",
      "meta": {
        "profile": [ "http://hl7.org/fhir/us/qicore/StructureDefinition/qicore-procedure" ]
      },
      "extension": [ {
        "url": "http://hl7.org/fhir/us/qicore/StructureDefinition/qicore-recorded",
        "valueDateTime": "2024-12-20T08:00:00.000Z"
      } ],
      "status": "completed",
      "code": {
        "coding": [ {
          "system": "http://snomed.info/sct",
          "code": "225337009"
        } ]
      },
      "subject": {
        "reference": "Patient/0a5107f9-6c0f-486d-8fbf-42b91e3dccba"
      },
      "performedDateTime": "2024-12-20T08:00:00.000+00:00"
    }
  }, {
    "fullUrl": "major-depressive-disorder-active-8bb9",
    "resource": {
      "resourceType": "Condition",
      "id": "major-depressive-disorder-active-8bb9",
      "meta": {
        "profile": [ "http://hl7.org/fhir/us/qicore/StructureDefinition/qicore-condition" ]
      },
      "category": [ {
        "coding": [ {
          "system": "http://terminology.hl7.org/CodeSystem/condition-category",
          "code": "encounter-diagnosis",
          "display": "Encounter Diagnosis"
        } ]
      } ],
      "code": {
        "coding": [ {
          "system": "http://snomed.info/sct",
          "version": "2022-09",
          "code": "10811121000119102",
          "display": "Major depressive disorder in mother complicating childbirth (disorder)",
          "userSelected": true
        } ]
      },
      "subject": {
        "reference": "Patient/0a5107f9-6c0f-486d-8fbf-42b91e3dccba"
      },
      "recordedDate": "2024-01-02T08:00:00.000+00:00"
    }
  }, {
    "fullUrl": "major-depressive-disorder-active-8bba",
    "resource": {
      "resourceType": "Condition",
      "id": "major-depressive-disorder-active-8bba",
      "meta": {
        "profile": [ "http://hl7.org/fhir/us/qicore/StructureDefinition/qicore-condition" ]
      },
      "category": [ {
        "coding": [ {
          "system": "http://terminology.hl7.org/CodeSystem/condition-category",
          "code": "encounter-diagnosis",
          "display": "Encounter Diagnosis"
        } ]
      } ],
      "code": {
        "coding": [ {
          "system": "http://snomed.info/sct",
          "version": "2022-09",
          "code": "10811121000119102",
          "display": "Major depressive disorder in mother complicating childbirth (disorder)",
          "userSelected": true
        } ]
      },
      "subject": {
        "reference": "Patient/0a5107f9-6c0f-486d-8fbf-42b91e3dccba"
      },
      "recordedDate": "2024-01-05T08:00:00.000+00:00"
    }
  }, {
    "fullUrl": "major-depressive-disorder-active-8bbb",
    "resource": {
      "resourceType": "Condition",
      "id": "major-depressive-disorder-active-8bbb",
      "meta": {
        "profile": [ "http://hl7.org/fhir/us/qicore/StructureDefinition/qicore-condition" ]
      },
      "category": [ {
        "coding": [ {
          "system": "http://terminology.hl7.org/CodeSystem/condition-category",
          "code": "encounter-diagnosis",
          "display": "Encounter Diagnosis"
        } ]
      } ],
      "code": {
        "coding": [ {
          "system": "http://snomed.info/sct",
          "version": "2022-09",
          "code": "10811121000119102",
          "display": "Major depressive disorder in mother complicating childbirth (disorder)",
          "userSelected": true
        } ]
      },
      "subject": {
        "reference": "Patient/0a5107f9-6c0f-486d-8fbf-42b91e3dccba"
      },
      "recordedDate": "2024-05-10T08:00:00.000+00:00"
    }
  }, {
    "fullUrl": "major-depressive-disorder-active-8bbc",
    "resource": {
      "resourceType": "Condition",
      "id": "major-depressive-disorder-active-8bbc",
      "meta": {
        "profile": [ "http://hl7.org/fhir/us/qicore/StructureDefinition/qicore-condition" ]
      },
      "category": [ {
        "coding": [ {
          "system": "http://terminology.hl7.org/CodeSystem/condition-category",
          "code": "encounter-diagnosis",
          "display": "Encounter Diagnosis"
        } ]
      } ],
      "code": {
        "coding": [ {
          "system": "http://snomed.info/sct",
          "version": "2022-09",
          "code": "10811121000119102",
          "display": "Major depressive disorder in mother complicating childbirth (disorder)",
          "userSelected": true
        } ]
      },
      "subject": {
        "reference": "Patient/0a5107f9-6c0f-486d-8fbf-42b91e3dccba"
      },
      "recordedDate": "2024-09-05T08:00:00.000+00:00"
    }
  }, {
    "fullUrl": "major-depressive-disorder-active-8bbd",
    "resource": {
      "resourceType": "Condition",
      "id": "major-depressive-disorder-active-8bbd",
      "meta": {
        "profile": [ "http://hl7.org/fhir/us/qicore/StructureDefinition/qicore-condition" ]
      },
      "category": [ {
        "coding": [ {
          "system": "http://terminology.hl7.org/CodeSystem/condition-category",
          "code": "encounter-diagnosis",
          "display": "Encounter Diagnosis"
        } ]
      } ],
      "code": {
        "coding": [ {
          "system": "http://snomed.info/sct",
          "version": "2022-09",
          "code": "10811121000119102",
          "display": "Major depressive disorder in mother complicating childbirth (disorder)",
          "userSelected": true
        } ]
      },
      "subject": {
        "reference": "Patient/0a5107f9-6c0f-486d-8fbf-42b91e3dccba"
      },
      "recordedDate": "2024-12-20T08:00:00.000+00:00"
    }
  }, {
    "fullUrl": "http://coverage/1",
    "resource": {
      "resourceType": "Coverage",
      "id": "1",
      "meta": {
        "profile": [ "http://hl7.org/fhir/us/qicore/StructureDefinition/qicore-coverage" ]
      },
      "status": "active",
      "beneficiary": {
        "reference": "Patient/0a5107f9-6c0f-486d-8fbf-42b91e3dccba"
      },
      "payor": [ {
        "reference": "Organization/123456"
      } ]
    }
  }, {
    "fullUrl": "http://Organization/123456",
    "resource": {
      "resourceType": "Organization",
      "id": "123456",
      "meta": {
        "profile": [ "http://hl7.org/fhir/us/qicore/StructureDefinition/qicore-organization" ]
      },
      "identifier": [ {
        "use": "temp",
        "system": "urn:oid:2.16.840.1.113883.4.4",
        "value": "21-3259825"
      } ],
      "active": true,
      "type": [ {
        "coding": [ {
          "system": "http://terminology.hl7.org/CodeSystem/organization-type",
          "code": "pay",
          "display": "Payer"
        } ]
      } ],
      "name": "Blue Cross Blue Shield of Texas",
      "telecom": [ {
        "system": "phone",
        "value": "(+1) 972-766-6900"
      } ],
      "address": [ {
        "use": "billing",
        "type": "postal",
        "line": [ "P.O. Box 660044" ],
        "city": "Dallas",
        "state": "TX",
        "postalCode": "75266-0044",
        "country": "USA"
      } ]
    }
  }, {
    "fullUrl": "http://Practitioner/123456",
    "resource": {
      "resourceType": "Practitioner",
      "id": "practitioner-123456",
      "meta": {
        "profile": [ "http://hl7.org/fhir/us/qicore/StructureDefinition/qicore-practitioner" ]
      },
      "identifier": [ {
        "system": "http://hl7.org/fhir/sid/us-npi",
        "value": "123456"
      } ],
      "name": [ {
        "family": "Evil",
        "prefix": [ "Dr" ]
      } ]
    }
  }, {
    "fullUrl": "https://madie.cms.gov/MeasureReport/6385047a4ba3d47c885c02c5/0a5107f9-6c0f-486d-8fbf-42b91e3dccba",
    "resource": {
      "resourceType": "MeasureReport",
      "id": "1470cdcd-5570-4ff8-84e9-5a3c1f141de6",
      "meta": {
        "profile": [ "http://hl7.org/fhir/us/cqfmeasures/StructureDefinition/test-case-cqfm" ]
      },
      "contained": [ {
        "resourceType": "Parameters",
        "id": "4Enc4RiskAssess-parameters",
        "parameter": [ {
          "name": "subject",
          "valueString": "0a5107f9-6c0f-486d-8fbf-42b91e3dccba"
        } ]
      } ],
      "extension": [ {
        "url": "http://hl7.org/fhir/us/cqfmeasures/StructureDefinition/cqfm-inputParameters",
        "valueReference": {
          "reference": "#4Enc4RiskAssess-parameters"
        }
      }, {
        "url": "http://hl7.org/fhir/us/cqfmeasures/StructureDefinition/cqfm-testCaseDescription",
        "valueMarkdown": "Patient with Diagnosis: Major Depressive Disorder Active and \nIntervention Performed: Suicide Risk Assessment performed during encounter. 4 Times. There are additional encounter/interventions but no diagnosis or they are not \"new/recurrent\""
      } ],
      "modifierExtension": [ {
        "url": "http://hl7.org/fhir/us/cqfmeasures/StructureDefinition/cqfm-isTestCase",
        "valueBoolean": true
      } ],
      "status": "complete",
      "type": "individual",
      "measure": "http://ecqi.healthit.gov/ecqms/Measure/AdultMajorDepressiveDisorderMDDSuicideRiskAssessmentFHIR",
      "period": {
        "start": "2024-01-01",
        "end": "2024-12-31"
      },
      "group": [ {
        "population": [ {
          "code": {
            "coding": [ {
              "system": "http://terminology.hl7.org/CodeSystem/measure-population",
              "code": "initial-population",
              "display": "Initial Population"
            } ]
          },
          "count": 4
        }, {
          "code": {
            "coding": [ {
              "system": "http://terminology.hl7.org/CodeSystem/measure-population",
              "code": "denominator",
              "display": "Denominator"
            } ]
          },
          "count": 4
        }, {
          "code": {
            "coding": [ {
              "system": "http://terminology.hl7.org/CodeSystem/measure-population",
              "code": "numerator",
              "display": "Numerator"
            } ]
          },
          "count": 4
        } ]
      } ],
      "evaluatedResource": [ {
        "reference": "https://madie.cms.gov/Patient/0a5107f9-6c0f-486d-8fbf-42b91e3dccba"
      }, {
        "reference": "Encounter/5c98fd74b848464ed33ea080"
      }, {
        "reference": "Encounter/5c98fd74b848464ed33ea081"
      }, {
        "reference": "Encounter/5c98fd74b848464ed33ea082"
      }, {
        "reference": "Encounter/5c98fd74b848464ed33ea083"
      }, {
        "reference": "Encounter/5c98fd74b848464ed33ea084"
      }, {
        "reference": "Encounter/5c98fd74b848464ed33ea085"
      }, {
        "reference": "Procedure/5c98fd74b848464ed33ea086"
      }, {
        "reference": "Procedure/5c98fd74b848464ed33ea087"
      }, {
        "reference": "Procedure/5c98fd74b848464ed33ea088"
      }, {
        "reference": "Procedure/5c98fd74b848464ed33ea089"
      }, {
        "reference": "Procedure/5c98fd74b848464ed33ea08a"
      }, {
        "reference": "Procedure/5c98fd74b848464ed33ea08b"
      }, {
        "reference": "Condition/major-depressive-disorder-active-8bb9"
      }, {
        "reference": "Condition/major-depressive-disorder-active-8bba"
      }, {
        "reference": "Condition/major-depressive-disorder-active-8bbb"
      }, {
        "reference": "Condition/major-depressive-disorder-active-8bbc"
      }, {
        "reference": "Condition/major-depressive-disorder-active-8bbd"
      }, {
        "reference": "Coverage/1"
      }, {
        "reference": "Organization/123456"
      }, {
        "reference": "Practitioner/practitioner-123456"
      } ]
    }
  } ]
}