{
  "id": "NUMERPassThrombinDuringED",
  "resourceType": "Bundle",
  "type": "collection",
  "entry": [
    {
      "fullUrl": "NUMERPassThrombinDuringED",
      "resource": {
        "id": "NUMERPassThrombinDuringED",
        "meta": {
          "profile": [
            "http://hl7.org/fhir/us/qicore/StructureDefinition/qicore-patient"
          ]
        },
        "resourceType": "Patient",
        "text": {
          "status": "generated",
          "div": "<div xmlns=\"http://www.w3.org/1999/xhtml\"><div class=\"hapiHeaderText\">ThrombinDuringED <b>NUMERPASS </b></div><table class=\"hapiPropertyTable\"><tbody><tr><td>Identifier</td><td>f2b441be18ed6316c95ae4ad6f27b780</td></tr><tr><td>Date of birth</td><td><span>03 March 1974</span></td></tr></tbody></table></div>"
        },
        "extension": [
          {
            "extension": [
              {
                "url": "ombCategory",
                "valueCoding": {
                  "system": "urn:oid:2.16.840.1.113883.6.238",
                  "code": "1002-5",
                  "display": "American Indian or Alaska Native",
                  "userSelected": true
                }
              },
              {
                "url": "text",
                "valueString": "American Indian or Alaska Native"
              }
            ],
            "url": "http://hl7.org/fhir/us/core/StructureDefinition/us-core-race"
          },
          {
            "extension": [
              {
                "url": "ombCategory",
                "valueCoding": {
                  "system": "urn:oid:2.16.840.1.113883.6.238",
                  "code": "2135-2",
                  "display": "Hispanic or Latino",
                  "userSelected": true
                }
              },
              {
                "url": "text",
                "valueString": "Hispanic or Latino"
              }
            ],
            "url": "http://hl7.org/fhir/us/core/StructureDefinition/us-core-ethnicity"
          }
        ],
        "identifier": [
          {
            "type": {
              "coding": [
                {
                  "system": "http://terminology.hl7.org/CodeSystem/v2-0203",
                  "code": "MR"
                }
              ]
            },
            "system": "https://bonnie-fhir.healthit.gov/",
            "value": "NUMERPassThrombinDuringED"
          }
        ],
        "active": true,
        "name": [
          {
            "use": "usual",
            "family": "NUMERPass",
            "given": [
              "ThrombinDuringED"
            ]
          }
        ],
        "gender": "female",
        "birthDate": "1974-03-03"
      }
    },
    {
      "fullUrl": "5ce8096eb848467c29eaf131",
      "resource": {
        "id": "5ce8096eb848467c29eaf131",
        "resourceType": "Encounter",
        "meta": {
          "profile": [
            "http://hl7.org/fhir/us/qicore/StructureDefinition/qicore-encounter"
          ]
          },
        "status": "finished",
        "class": {
          "system": "http://terminology.hl7.org/CodeSystem/v3-ActCode",
          "code": "IMP"
          },
        "type": [
          {
            "coding": [
              {
                "system": "http://snomed.info/sct",
                "code": "4525004"
              }
            ]
          }
        ],
        "subject": {
          "reference": "Patient/NUMERPassThrombinDuringED"
        },
        "period": {
          "start": "2022-12-06T02:00:00+00:00",
          "end": "2022-12-06T08:15:00+00:00"
        },
        "length": {
          "value": 0.0,
          "unit": "days"
        }
      }
    },
    {
      "fullUrl": "5ce8096eb848467c29eaf132",
      "resource": {
        "id": "5ce8096eb848467c29eaf132",
        "resourceType": "Encounter",
        "meta": {
          "profile": [
            "http://hl7.org/fhir/us/qicore/StructureDefinition/qicore-encounter"
          ]
          },
        "status": "finished",
        "class": { 
              "system": "http://terminology.hl7.org/CodeSystem/v3-ActCode",
              "code": "IMP"
        },
        "type": [
          {
            "coding": [
              {
                "system": "http://snomed.info/sct",
                "code": "8715000"
              }
            ]
          }
        ],
        "subject": {
          "reference": "Patient/NUMERPassThrombinDuringED"
        },
        "period": {
          "start": "2022-12-06T08:45:00+00:00",
          "end": "2022-12-30T08:15:00+00:00"
        },
        "length": {
          "value": 24.0,
          "unit": "days"
        },
        "location": [
          {
            "location": {
              "reference": "Location/intensive-care-unit-230a"
            },
            "period": {
              "start": "2022-12-06T09:00:00.000+00:00",
              "end": "2022-12-12T08:15:00.000+00:00"
            }
          }
        ]
      }
    },
    {
      "fullUrl": "5fa040f61c76ba66d9958fcd",
      "resource": {
        "id": "5fa040f61c76ba66d9958fcd",
        "resourceType": "Coverage",
        "beneficiary": {
          "reference": "Patient/NUMERPassThrombinDuringED"
        },
        "status": "active",
        "payor": [
                 {"reference": "Patient/NUMERPassThrombinDuringED"}
           ],
        "period": {
          "start": "1974-03-03T08:00:00+00:00"
        }
      }
    },
    {
      "fullUrl": "5ce8096eb848467c29eaf133",
      "resource": {
        "id": "5ce8096eb848467c29eaf133",
        "resourceType": "MedicationAdministration",
        "status": "completed",
        "medicationCodeableConcept": {
          "coding": [
            {
              "system": "http://www.nlm.nih.gov/research/umls/rxnorm",
              "code": "308351"
            }
          ]
        },
        "subject": {
          "reference": "Patient/NUMERPassThrombinDuringED"
        },
        "effectivePeriod": {
          "start": "2022-12-06T06:30:00+00:00"
        }
      }
    },
    {
      "fullUrl": "intensive-care-unit-230a",
      "resource": {
        "id": "intensive-care-unit-230a",
        "resourceType": "Location",
        "type": [
          {
            "coding": [
              {
                "system": "https://www.cdc.gov/nhsn/cdaportal/terminology/codesystem/hsloc.html",
                "version": "2020",
                "code": "1025-6",
                "display": "Trauma Critical Care",
                "userSelected": true
              }
            ]
          }
        ]
      }
    }
  ]
}