{"resourceType":"Bundle","id":"tests-c51459e4-0636-452f-9cbc-d73b599ad7c5-bundle","type":"transaction","entry":[{"resource":{"resourceType":"Bundle","id":"649f2e939f80b525f0f78200","type":"collection","entry":[{"fullUrl":"https://madie.cms.gov/Patient/c51459e4-0636-452f-9cbc-d73b599ad7c5","resource":{"resourceType":"Patient","id":"c51459e4-0636-452f-9cbc-d73b599ad7c5","meta":{"profile":["http://hl7.org/fhir/us/qicore/StructureDefinition/qicore-patient"]},"extension":[{"url":"http://hl7.org/fhir/us/core/StructureDefinition/us-core-race","extension":[{"url":"ombCategory","valueCoding":{"system":"urn:oid:2.16.840.1.113883.6.238","code":"2054-5","display":"Black or African American","userSelected":true}},{"url":"text","valueString":"Black or African American"}]},{"url":"http://hl7.org/fhir/us/core/StructureDefinition/us-core-ethnicity","extension":[{"url":"ombCategory","valueCoding":{"system":"urn:oid:2.16.840.1.113883.6.238","code":"2186-5","display":"Not Hispanic or Latino","userSelected":true}},{"url":"text","valueString":"Not Hispanic or Latino"}]}],"identifier":[{"type":{"coding":[{"system":"http://terminology.hl7.org/CodeSystem/v2-0203","code":"MR"}]},"system":"https://bonnie-fhir.healthit.gov/","value":"649f2e939f80b525f0f78200"}],"name":[{"family":"NUMFail","given":["1LabAfterMP2LabDuringMP"]}],"gender":"female","birthDate":"2000-02-04"}},{"fullUrl":"hiv-8201","resource":{"resourceType":"Condition","id":"hiv-8201","meta":{"profile":["http://hl7.org/fhir/us/qicore/StructureDefinition/qicore-condition"]},"category":[{"coding":[{"system":"http://terminology.hl7.org/CodeSystem/condition-category","code":"problem-list-item","display":"Problem List Item"}]}],"code":{"coding":[{"system":"http://hl7.org/fhir/sid/icd-9-cm","version":"2013","code":"042","display":"Human immunodeficiency virus [HIV] disease","userSelected":true},{"system":"http://snomed.info/sct","code":"165816005","userSelected":true}]},"subject":{"reference":"Patient/c51459e4-0636-452f-9cbc-d73b599ad7c5"},"onsetDateTime":"2017-09-28T08:00:00.000+00:00","recordedDate":"2017-09-28T08:00:00.000+00:00"}},{"fullUrl":"preventive-care-services-initial-office-visit-0-to-17-8202","resource":{"resourceType":"Encounter","id":"preventive-care-services-initial-office-visit-0-to-17-8202","meta":{"profile":["http://hl7.org/fhir/us/qicore/StructureDefinition/qicore-encounter"]},"status":"finished","class":{"system":"http://terminology.hl7.org/CodeSystem/v3-ActCode","code":"AMB","display":"ambulatory"},"type":[{"coding":[{"system":"http://www.ama-assn.org/go/cpt","version":"2023","code":"99381","display":"Initial comprehensive preventive medicine evaluation and management of an individual including an age and gender appropriate history, examination, counseling/anticipatory guidance/risk factor reduction interventions, and the ordering of laboratory/diagnostic procedures, new patient; infant (age younger than 1 year)","userSelected":true}]}],"subject":{"reference":"Patient/c51459e4-0636-452f-9cbc-d73b599ad7c5"},"period":{"start":"2024-09-28T08:00:00.000+00:00","end":"2024-09-28T08:30:00.000+00:00"}}},{"fullUrl":"syphilis-tests-8203","resource":{"resourceType":"Observation","id":"syphilis-tests-8203","meta":{"profile":["http://hl7.org/fhir/us/qicore/StructureDefinition/qicore-observation"]},"status":"final","category":[{"coding":[{"system":"http://terminology.hl7.org/CodeSystem/observation-category"}]}],"code":{"coding":[{"system":"http://loinc.org","version":"2.73","code":"11084-1","display":"Reagin Ab [Titer] in Serum","userSelected":true}]},"subject":{"reference":"Patient/c51459e4-0636-452f-9cbc-d73b599ad7c5"},"effectiveDateTime":"2024-10-31T08:16:00.000+00:00","issued":"2024-10-31T08:16:00.000+00:00","valueQuantity":{"value":28.0}}},{"fullUrl":"gonorrhea-screening-8204","resource":{"resourceType":"Observation","id":"gonorrhea-screening-8204","meta":{"profile":["http://hl7.org/fhir/us/qicore/StructureDefinition/qicore-observation"]},"status":"final","category":[{"coding":[{"system":"http://terminology.hl7.org/CodeSystem/observation-category"}]}],"code":{"coding":[{"system":"http://loinc.org","version":"2.73","code":"21414-8","display":"Neisseria gonorrhoeae DNA [Presence] in Cervical mucus by NAA with probe detection","userSelected":true}]},"subject":{"reference":"Patient/c51459e4-0636-452f-9cbc-d73b599ad7c5"},"effectiveDateTime":"2025-01-31T08:00:00.000+00:00","issued":"2025-01-31T08:00:00.000+00:00","valueQuantity":{"value":19.0}}},{"fullUrl":"chlamydia-screening-8205","resource":{"resourceType":"Observation","id":"chlamydia-screening-8205","meta":{"profile":["http://hl7.org/fhir/us/qicore/StructureDefinition/qicore-observation"]},"status":"final","category":[{"coding":[{"system":"http://terminology.hl7.org/CodeSystem/observation-category"}]}],"code":{"coding":[{"system":"http://loinc.org","version":"2.73","code":"14463-4","display":"Chlamydia trachomatis [Presence] in Cervix by Organism specific culture","userSelected":true}]},"subject":{"reference":"Patient/c51459e4-0636-452f-9cbc-d73b599ad7c5"},"effectivePeriod":{"start":"2024-10-31T08:16:00.000+00:00","end":"2024-10-31T08:17:00.000+00:00"},"issued":"2024-10-31T08:16:00.000+00:00","valueQuantity":{"value":12.0}}},{"fullUrl":"http://coverage/1","resource":{"resourceType":"Coverage","id":"1","meta":{"profile":["http://hl7.org/fhir/us/qicore/StructureDefinition/qicore-coverage"]},"status":"active","beneficiary":{"reference":"Patient/c51459e4-0636-452f-9cbc-d73b599ad7c5"},"payor":[{"reference":"Organization/123456"}]}},{"fullUrl":"http://Organization/123456","resource":{"resourceType":"Organization","id":"123456","meta":{"profile":["http://hl7.org/fhir/us/qicore/StructureDefinition/qicore-organization"]},"identifier":[{"use":"temp","system":"urn:oid:2.16.840.1.113883.4.4","value":"21-3259825"}],"active":true,"type":[{"coding":[{"system":"http://terminology.hl7.org/CodeSystem/organization-type","code":"pay","display":"Payer"}]}],"name":"Blue Cross Blue Shield of Texas","telecom":[{"system":"phone","value":"(+1) 972-766-6900"}],"address":[{"use":"billing","type":"postal","line":["P.O. Box 660044"],"city":"Dallas","state":"TX","postalCode":"75266-0044","country":"USA"}]}},{"fullUrl":"http://Practitioner/123456","resource":{"resourceType":"Practitioner","id":"practitioner-123456","meta":{"profile":["http://hl7.org/fhir/us/qicore/StructureDefinition/qicore-practitioner"]},"identifier":[{"system":"http://hl7.org/fhir/sid/us-npi","value":"123456"}],"name":[{"family":"Evil","prefix":["Dr"]}]}},{"fullUrl":"https://madie.cms.gov/MeasureReport/64998bd84c79454c026f7484/c51459e4-0636-452f-9cbc-d73b599ad7c5","resource":{"resourceType":"MeasureReport","id":"dd1da970-b657-498c-bf9c-f711cf9646b5","meta":{"profile":["http://hl7.org/fhir/us/cqfmeasures/StructureDefinition/test-case-cqfm"]},"contained":[{"resourceType":"Parameters","id":"1LabAfterMP2LabDuringMP-parameters","parameter":[{"name":"subject","valueString":"c51459e4-0636-452f-9cbc-d73b599ad7c5"}]}],"extension":[{"url":"http://hl7.org/fhir/us/cqfmeasures/StructureDefinition/cqfm-inputParameters","valueReference":{"reference":"#1LabAfterMP2LabDuringMP-parameters"}},{"url":"http://hl7.org/fhir/us/cqfmeasures/StructureDefinition/cqfm-testCaseDescription","valueMarkdown":"Patient is over 13 years old with an encounter - 1 STI screen after MP, 2 STI screen during MP"}],"modifierExtension":[{"url":"http://hl7.org/fhir/us/cqfmeasures/StructureDefinition/cqfm-isTestCase","valueBoolean":true}],"status":"complete","type":"individual","measure":"http://ecqi.healthit.gov/ecqms/Measure/HIVSTITestingFHIR","period":{"start":"2024-01-01","end":"2024-12-31"},"group":[{"population":[{"code":{"coding":[{"system":"http://terminology.hl7.org/CodeSystem/measure-population","code":"initial-population","display":"Initial Population"}]},"count":1},{"code":{"coding":[{"system":"http://terminology.hl7.org/CodeSystem/measure-population","code":"denominator","display":"Denominator"}]},"count":1},{"code":{"coding":[{"system":"http://terminology.hl7.org/CodeSystem/measure-population","code":"numerator","display":"Numerator"}]},"count":0}]}],"evaluatedResource":[{"reference":"https://madie.cms.gov/Patient/c51459e4-0636-452f-9cbc-d73b599ad7c5"},{"reference":"Condition/hiv-8201"},{"reference":"Encounter/preventive-care-services-initial-office-visit-0-to-17-8202"},{"reference":"Observation/syphilis-tests-8203"},{"reference":"Observation/gonorrhea-screening-8204"},{"reference":"Observation/chlamydia-screening-8205"},{"reference":"Coverage/1"},{"reference":"Organization/123456"},{"reference":"Practitioner/practitioner-123456"}]}}]},"request":{"method":"PUT","url":"Bundle/649f2e939f80b525f0f78200"}}]}