{"resourceType":"Bundle","id":"tests-622490d4-d334-4bdb-aed9-f2ef421cfb39-bundle","type":"transaction","entry":[{"resource":{"resourceType":"Bundle","id":"63ec0967ccb3770120fe9cd2","type":"collection","entry":[{"fullUrl":"https://madie.cms.gov/Patient/622490d4-d334-4bdb-aed9-f2ef421cfb39","resource":{"resourceType":"Patient","id":"622490d4-d334-4bdb-aed9-f2ef421cfb39","meta":{"profile":["http://hl7.org/fhir/us/qicore/StructureDefinition/qicore-patient"]},"text":{"status":"generated","div":"<div xmlns=\"http://www.w3.org/1999/xhtml\"><div class=\"hapiHeaderText\">PayerWrongCode <b>IPFAIL </b></div><table class=\"hapiPropertyTable\"><tbody><tr><td>Identifier</td><td>5c9ef8226b4209ed1a321756f1329ad627fbd072de2cf97046c3716c4dd20de3</td></tr><tr><td>Date of birth</td><td><span>15 June 1956</span></td></tr></tbody></table></div>"},"extension":[{"url":"http://hl7.org/fhir/us/core/StructureDefinition/us-core-race","extension":[{"url":"ombCategory","valueCoding":{"system":"urn:oid:2.16.840.1.113883.6.238","code":"1002-5","display":"American Indian or Alaska Native","userSelected":true}},{"url":"text","valueString":"American Indian or Alaska Native"}]},{"url":"http://hl7.org/fhir/us/core/StructureDefinition/us-core-ethnicity","extension":[{"url":"ombCategory","valueCoding":{"system":"urn:oid:2.16.840.1.113883.6.238","code":"2186-5","display":"Not Hispanic or Latino","userSelected":true}},{"url":"text","valueString":"Not Hispanic or Latino"}]}],"identifier":[{"type":{"coding":[{"system":"http://terminology.hl7.org/CodeSystem/v2-0203","code":"MR"}]},"system":"https://bonnie-fhir.healthit.gov/","value":"63ec0967ccb3770120fe9cd2"}],"active":true,"name":[{"use":"usual","family":"IPFail","given":["PayerWrongCode"]}],"gender":"male","birthDate":"1956-06-15"}},{"fullUrl":"5e3b1d6167e0b50000f745c3","resource":{"resourceType":"Encounter","id":"5e3b1d6167e0b50000f745c3","meta":{"profile":["http://hl7.org/fhir/us/qicore/StructureDefinition/qicore-encounter"]},"status":"finished","class":{"system":"http://terminology.hl7.org/CodeSystem/v3-ActCode","code":"IMP","display":"inpatient encounter","userSelected":true},"type":[{"coding":[{"system":"http://snomed.info/sct","code":"183452005"}]}],"subject":{"reference":"Patient/622490d4-d334-4bdb-aed9-f2ef421cfb39"},"period":{"start":"2024-08-21T08:00:00+00:00","end":"2024-08-22T08:15:00+00:00"},"length":{"value":1.0,"unit":"day"}}},{"fullUrl":"payer-f267","resource":{"resourceType":"Coverage","id":"payer-f267","meta":{"profile":["http://hl7.org/fhir/us/qicore/StructureDefinition/qicore-coverage"]},"status":"active","type":{"coding":[{"system":"http://www.nlm.nih.gov/research/umls/sop","code":"119","userSelected":true}]},"beneficiary":{"reference":"Patient/622490d4-d334-4bdb-aed9-f2ef421cfb39"},"period":{"start":"2022-07-16T08:00:00.000+00:00","end":"2027-07-16T08:15:00.000+00:00"},"payor":[{"reference":"Organization/123456"}]}},{"fullUrl":"http://Organization/123456","resource":{"resourceType":"Organization","id":"123456","meta":{"profile":["http://hl7.org/fhir/us/qicore/StructureDefinition/qicore-organization"]},"identifier":[{"use":"temp","system":"urn:oid:2.16.840.1.113883.4.4","value":"21-3259825"}],"active":true,"type":[{"coding":[{"system":"http://terminology.hl7.org/CodeSystem/organization-type","code":"pay","display":"Payer"}]}],"name":"Blue Cross Blue Shield of Texas","telecom":[{"system":"phone","value":"(+1) 972-766-6900"}],"address":[{"use":"billing","type":"postal","line":["P.O. Box 660044"],"city":"Dallas","state":"TX","postalCode":"75266-0044","country":"USA"}]}},{"fullUrl":"http://Practitioner/123456","resource":{"resourceType":"Practitioner","id":"practitioner-123456","meta":{"profile":["http://hl7.org/fhir/us/qicore/StructureDefinition/qicore-practitioner"]},"identifier":[{"system":"http://hl7.org/fhir/sid/us-npi","value":"123456"}],"name":[{"family":"Evil","prefix":["Dr"]}]}},{"fullUrl":"https://madie.cms.gov/MeasureReport/6385011c4ba3d47c885c02ab/622490d4-d334-4bdb-aed9-f2ef421cfb39","resource":{"resourceType":"MeasureReport","id":"e4d692c9-7f6d-4081-b92b-3eb14cd82e3f","meta":{"profile":["http://hl7.org/fhir/us/cqfmeasures/StructureDefinition/test-case-cqfm"]},"contained":[{"resourceType":"Parameters","id":"PayerWrongCode-parameters","parameter":[{"name":"subject","valueString":"622490d4-d334-4bdb-aed9-f2ef421cfb39"}]}],"extension":[{"url":"http://hl7.org/fhir/us/cqfmeasures/StructureDefinition/cqfm-inputParameters","valueReference":{"reference":"#PayerWrongCode-parameters"}},{"url":"http://hl7.org/fhir/us/cqfmeasures/StructureDefinition/cqfm-testCaseDescription","valueMarkdown":"Medicare payer has wrong code (BT: It had a SOP of \"1\" which made IP=1. I changed to 119)\nNot in initial population. "}],"modifierExtension":[{"url":"http://hl7.org/fhir/us/cqfmeasures/StructureDefinition/cqfm-isTestCase","valueBoolean":true}],"status":"complete","type":"individual","measure":"http://ecqi.healthit.gov/ecqms/Measure/HybridHospitalWideMortalityFHIR","period":{"start":"2024-07-01","end":"2025-06-30"},"group":[{"population":[{"code":{"coding":[{"system":"http://terminology.hl7.org/CodeSystem/measure-population","code":"initial-population","display":"Initial Population"}]},"count":0}]}],"evaluatedResource":[{"reference":"https://madie.cms.gov/Patient/622490d4-d334-4bdb-aed9-f2ef421cfb39"},{"reference":"Encounter/5e3b1d6167e0b50000f745c3"},{"reference":"Coverage/payer-f267"},{"reference":"Organization/123456"},{"reference":"Practitioner/practitioner-123456"}]}}]},"request":{"method":"PUT","url":"Bundle/63ec0967ccb3770120fe9cd2"}}]}