{"resourceType":"Bundle","id":"tests-e03c0afd-5337-4e14-9091-845f63bfbd83-bundle","type":"transaction","entry":[{"resource":{"resourceType":"Bundle","id":"63ec0966ccb3770120fe9c3c","type":"collection","entry":[{"fullUrl":"https://madie.cms.gov/Patient/e03c0afd-5337-4e14-9091-845f63bfbd83","resource":{"resourceType":"Patient","id":"e03c0afd-5337-4e14-9091-845f63bfbd83","meta":{"profile":["http://hl7.org/fhir/us/qicore/StructureDefinition/qicore-patient"]},"text":{"status":"generated","div":"<div xmlns=\"http://www.w3.org/1999/xhtml\"><div class=\"hapiHeaderText\">HRSBP_relevantPeriod <b>COMBO1 </b></div><table class=\"hapiPropertyTable\"><tbody><tr><td>Identifier</td><td>647b828a576e8c34eaa21fd1cdb85d1e5f291be13e6a5c34a9fc817d4466c0f5</td></tr><tr><td>Date of birth</td><td><span>15 June 1956</span></td></tr></tbody></table></div>"},"extension":[{"url":"http://hl7.org/fhir/us/core/StructureDefinition/us-core-race","extension":[{"url":"ombCategory","valueCoding":{"system":"urn:oid:2.16.840.1.113883.6.238","code":"2054-5","display":"Black or African American","userSelected":true}},{"url":"text","valueString":"Black or African American"}]},{"url":"http://hl7.org/fhir/us/core/StructureDefinition/us-core-ethnicity","extension":[{"url":"ombCategory","valueCoding":{"system":"urn:oid:2.16.840.1.113883.6.238","code":"2186-5","display":"Not Hispanic or Latino","userSelected":true}},{"url":"text","valueString":"Not Hispanic or Latino"}]}],"identifier":[{"type":{"coding":[{"system":"http://terminology.hl7.org/CodeSystem/v2-0203","code":"MR"}]},"system":"https://bonnie-fhir.healthit.gov/","value":"63ec0966ccb3770120fe9c3c"}],"active":true,"name":[{"use":"usual","family":"Combo1","given":["HRSBP_relevantPeriod"]}],"gender":"female","birthDate":"1956-06-15"}},{"fullUrl":"5e0640a6fa854b0000583f69","resource":{"resourceType":"Encounter","id":"5e0640a6fa854b0000583f69","meta":{"profile":["http://hl7.org/fhir/us/qicore/StructureDefinition/qicore-encounter"]},"status":"finished","class":{"system":"http://terminology.hl7.org/CodeSystem/v3-ActCode","code":"IMP","display":"inpatient encounter","userSelected":true},"type":[{"coding":[{"system":"http://snomed.info/sct","code":"183452005"}]}],"subject":{"reference":"Patient/e03c0afd-5337-4e14-9091-845f63bfbd83"},"period":{"start":"2024-08-21T08:10:00.000+00:00","end":"2024-09-18T08:15:00.000+00:00"},"length":{"value":27.0,"unit":"days"}}},{"fullUrl":"5f996aaed3abb500009ff84b","resource":{"resourceType":"Coverage","id":"5f996aaed3abb500009ff84b","meta":{"profile":["http://hl7.org/fhir/us/qicore/StructureDefinition/qicore-coverage"]},"status":"active","type":{"coding":[{"system":"https://nahdo.org/sopt","version":"1.0.1","code":"1","display":"Medicare payer","userSelected":true}]},"beneficiary":{"reference":"Patient/e03c0afd-5337-4e14-9091-845f63bfbd83"},"payor":[{"reference":"Organization/123456"}]}},{"fullUrl":"5b5f894cb848461e71030a01","resource":{"resourceType":"Observation","id":"5b5f894cb848461e71030a01","meta":{"profile":["http://hl7.org/fhir/us/qicore/StructureDefinition/qicore-observation"]},"status":"final","category":[{"coding":[{"system":"http://terminology.hl7.org/CodeSystem/observation-category","code":"laboratory","display":"laboratory","userSelected":true}]}],"code":{"coding":[{"system":"http://loinc.org","code":"8867-4"}]},"subject":{"reference":"Patient/e03c0afd-5337-4e14-9091-845f63bfbd83"},"effectiveDateTime":"2024-08-08T08:00:00.000+00:00","valueQuantity":{"value":170.0}}},{"fullUrl":"5b5f894cb848461e71030a03","resource":{"resourceType":"Observation","id":"5b5f894cb848461e71030a03","meta":{"profile":["http://hl7.org/fhir/us/qicore/StructureDefinition/qicore-observation"]},"status":"final","category":[{"coding":[{"system":"http://terminology.hl7.org/CodeSystem/observation-category","code":"laboratory","display":"laboratory","userSelected":true}]}],"code":{"coding":[{"system":"http://loinc.org","code":"8480-6"}]},"subject":{"reference":"Patient/e03c0afd-5337-4e14-9091-845f63bfbd83"},"effectiveDateTime":"2024-08-19T08:00:00.000+00:00","valueQuantity":{"value":120.0}}},{"fullUrl":"5b5f894cb848461e71030a05","resource":{"resourceType":"Observation","id":"5b5f894cb848461e71030a05","meta":{"profile":["http://hl7.org/fhir/us/qicore/StructureDefinition/qicore-observation"]},"status":"final","category":[{"coding":[{"system":"http://terminology.hl7.org/CodeSystem/observation-category","code":"laboratory","display":"laboratory","userSelected":true}]}],"code":{"coding":[{"system":"http://loinc.org","code":"8867-4"}]},"subject":{"reference":"Patient/e03c0afd-5337-4e14-9091-845f63bfbd83"},"effectiveDateTime":"2024-08-21T09:59:00.000+00:00","valueQuantity":{"value":165.0}}},{"fullUrl":"5b5f894cb848461e71030a07","resource":{"resourceType":"Observation","id":"5b5f894cb848461e71030a07","meta":{"profile":["http://hl7.org/fhir/us/qicore/StructureDefinition/qicore-observation"]},"status":"final","category":[{"coding":[{"system":"http://terminology.hl7.org/CodeSystem/observation-category","code":"laboratory","display":"laboratory","userSelected":true}]}],"code":{"coding":[{"system":"http://loinc.org","code":"8480-6"}]},"subject":{"reference":"Patient/e03c0afd-5337-4e14-9091-845f63bfbd83"},"effectiveDateTime":"2024-08-08T08:00:00.000+00:00","valueQuantity":{"value":115.0}}},{"fullUrl":"http://Organization/123456","resource":{"resourceType":"Organization","id":"123456","meta":{"profile":["http://hl7.org/fhir/us/qicore/StructureDefinition/qicore-organization"]},"identifier":[{"use":"temp","system":"urn:oid:2.16.840.1.113883.4.4","value":"21-3259825"}],"active":true,"type":[{"coding":[{"system":"http://terminology.hl7.org/CodeSystem/organization-type","code":"pay","display":"Payer"}]}],"name":"Blue Cross Blue Shield of Texas","telecom":[{"system":"phone","value":"(+1) 972-766-6900"}],"address":[{"use":"billing","type":"postal","line":["P.O. Box 660044"],"city":"Dallas","state":"TX","postalCode":"75266-0044","country":"USA"}]}},{"fullUrl":"http://Practitioner/123456","resource":{"resourceType":"Practitioner","id":"practitioner-123456","meta":{"profile":["http://hl7.org/fhir/us/qicore/StructureDefinition/qicore-practitioner"]},"identifier":[{"system":"http://hl7.org/fhir/sid/us-npi","value":"123456"}],"name":[{"family":"Evil","prefix":["Dr"]}]}},{"fullUrl":"https://madie.cms.gov/MeasureReport/6385011c4ba3d47c885c02ab/e03c0afd-5337-4e14-9091-845f63bfbd83","resource":{"resourceType":"MeasureReport","id":"bef5f1e8-6730-47ab-88b7-935eeb63dbbf","meta":{"profile":["http://hl7.org/fhir/us/cqfmeasures/StructureDefinition/test-case-cqfm"]},"contained":[{"resourceType":"Parameters","id":"HRSBP_relevantPeriod-parameters","parameter":[{"name":"subject","valueString":"e03c0afd-5337-4e14-9091-845f63bfbd83"}]}],"extension":[{"url":"http://hl7.org/fhir/us/cqfmeasures/StructureDefinition/cqfm-inputParameters","valueReference":{"reference":"#HRSBP_relevantPeriod-parameters"}},{"url":"http://hl7.org/fhir/us/cqfmeasures/StructureDefinition/cqfm-testCaseDescription","valueMarkdown":"No SBP results pass. The later HR value should be included because it is the first one within the time window"}],"modifierExtension":[{"url":"http://hl7.org/fhir/us/cqfmeasures/StructureDefinition/cqfm-isTestCase","valueBoolean":true}],"status":"complete","type":"individual","measure":"http://ecqi.healthit.gov/ecqms/Measure/HybridHospitalWideMortalityFHIR","period":{"start":"2024-07-01","end":"2025-06-30"},"group":[{"population":[{"code":{"coding":[{"system":"http://terminology.hl7.org/CodeSystem/measure-population","code":"initial-population","display":"Initial Population"}]},"count":1}]}],"evaluatedResource":[{"reference":"https://madie.cms.gov/Patient/e03c0afd-5337-4e14-9091-845f63bfbd83"},{"reference":"Encounter/5e0640a6fa854b0000583f69"},{"reference":"Coverage/5f996aaed3abb500009ff84b"},{"reference":"Observation/5b5f894cb848461e71030a01"},{"reference":"Observation/5b5f894cb848461e71030a03"},{"reference":"Observation/5b5f894cb848461e71030a05"},{"reference":"Observation/5b5f894cb848461e71030a07"},{"reference":"Organization/123456"},{"reference":"Practitioner/practitioner-123456"}]}}]},"request":{"method":"PUT","url":"Bundle/63ec0966ccb3770120fe9c3c"}}]}