{"resourceType":"Bundle","id":"tests-cf648ca2-7300-4d96-8a8e-d1f14460d730-bundle","type":"transaction","entry":[{"resource":{"resourceType":"Bundle","id":"63ec096accb3770120fe9f44","type":"collection","entry":[{"fullUrl":"https://madie.cms.gov/Patient/cf648ca2-7300-4d96-8a8e-d1f14460d730","resource":{"resourceType":"Patient","id":"cf648ca2-7300-4d96-8a8e-d1f14460d730","meta":{"profile":["http://hl7.org/fhir/us/qicore/StructureDefinition/qicore-patient"]},"text":{"status":"generated","div":"<div xmlns=\"http://www.w3.org/1999/xhtml\"><div class=\"hapiHeaderText\">NoPayer <b>IPFAIL </b></div><table class=\"hapiPropertyTable\"><tbody><tr><td>Identifier</td><td>17d0502e8974bc2b20ca9540d72f918fc65c02384674d88cd5e390e22bb1c810</td></tr><tr><td>Date of birth</td><td><span>15 June 1956</span></td></tr></tbody></table></div>"},"extension":[{"url":"http://hl7.org/fhir/us/core/StructureDefinition/us-core-race","extension":[{"url":"ombCategory","valueCoding":{"system":"urn:oid:2.16.840.1.113883.6.238","code":"1002-5","display":"American Indian or Alaska Native","userSelected":true}},{"url":"text","valueString":"American Indian or Alaska Native"}]},{"url":"http://hl7.org/fhir/us/core/StructureDefinition/us-core-ethnicity","extension":[{"url":"ombCategory","valueCoding":{"system":"urn:oid:2.16.840.1.113883.6.238","code":"2186-5","display":"Not Hispanic or Latino","userSelected":true}},{"url":"text","valueString":"Not Hispanic or Latino"}]}],"identifier":[{"type":{"coding":[{"system":"http://terminology.hl7.org/CodeSystem/v2-0203","code":"MR"}]},"system":"https://bonnie-fhir.healthit.gov/","value":"63ec096accb3770120fe9f44"}],"active":true,"name":[{"use":"usual","family":"IPFail","given":["NoPayer"]}],"gender":"male","birthDate":"1956-06-15"}},{"fullUrl":"5e3b3147d6cb680000be9821","resource":{"resourceType":"Encounter","id":"5e3b3147d6cb680000be9821","meta":{"profile":["http://hl7.org/fhir/us/qicore/StructureDefinition/qicore-encounter"]},"status":"finished","class":{"system":"http://terminology.hl7.org/CodeSystem/v3-ActCode","code":"NONAC","display":"Nonacute","userSelected":true},"type":[{"coding":[{"system":"http://snomed.info/sct","code":"183452005"}]}],"subject":{"reference":"Patient/cf648ca2-7300-4d96-8a8e-d1f14460d730"},"period":{"start":"2024-08-21T08:00:00+00:00","end":"2024-08-22T08:15:00+00:00"},"length":{"value":1.0,"unit":"day"}}},{"fullUrl":"http://Organization/123456","resource":{"resourceType":"Organization","id":"123456","meta":{"profile":["http://hl7.org/fhir/us/qicore/StructureDefinition/qicore-organization"]},"identifier":[{"use":"temp","system":"urn:oid:2.16.840.1.113883.4.4","value":"21-3259825"}],"active":true,"type":[{"coding":[{"system":"http://terminology.hl7.org/CodeSystem/organization-type","code":"pay","display":"Payer"}]}],"name":"Blue Cross Blue Shield of Texas","telecom":[{"system":"phone","value":"(+1) 972-766-6900"}],"address":[{"use":"billing","type":"postal","line":["P.O. Box 660044"],"city":"Dallas","state":"TX","postalCode":"75266-0044","country":"USA"}]}},{"fullUrl":"http://Practitioner/123456","resource":{"resourceType":"Practitioner","id":"practitioner-123456","meta":{"profile":["http://hl7.org/fhir/us/qicore/StructureDefinition/qicore-practitioner"]},"identifier":[{"system":"http://hl7.org/fhir/sid/us-npi","value":"123456"}],"name":[{"family":"Evil","prefix":["Dr"]}]}},{"fullUrl":"https://madie.cms.gov/MeasureReport/6385011c4ba3d47c885c02ab/cf648ca2-7300-4d96-8a8e-d1f14460d730","resource":{"resourceType":"MeasureReport","id":"71d98f17-8a47-45b9-ba8d-a4efe3892c2a","meta":{"profile":["http://hl7.org/fhir/us/cqfmeasures/StructureDefinition/test-case-cqfm"]},"contained":[{"resourceType":"Parameters","id":"NoPayer-parameters","parameter":[{"name":"subject","valueString":"cf648ca2-7300-4d96-8a8e-d1f14460d730"}]}],"extension":[{"url":"http://hl7.org/fhir/us/cqfmeasures/StructureDefinition/cqfm-inputParameters","valueReference":{"reference":"#NoPayer-parameters"}},{"url":"http://hl7.org/fhir/us/cqfmeasures/StructureDefinition/cqfm-testCaseDescription","valueMarkdown":"Patient does not have Medicare enrollment. \nNot in initial population. "}],"modifierExtension":[{"url":"http://hl7.org/fhir/us/cqfmeasures/StructureDefinition/cqfm-isTestCase","valueBoolean":true}],"status":"complete","type":"individual","measure":"http://ecqi.healthit.gov/ecqms/Measure/HybridHospitalWideMortalityFHIR","period":{"start":"2024-07-01","end":"2025-06-30"},"group":[{"population":[{"code":{"coding":[{"system":"http://terminology.hl7.org/CodeSystem/measure-population","code":"initial-population","display":"Initial Population"}]},"count":0}]}],"evaluatedResource":[{"reference":"https://madie.cms.gov/Patient/cf648ca2-7300-4d96-8a8e-d1f14460d730"},{"reference":"Encounter/5e3b3147d6cb680000be9821"},{"reference":"Organization/123456"},{"reference":"Practitioner/practitioner-123456"}]}}]},"request":{"method":"PUT","url":"Bundle/63ec096accb3770120fe9f44"}}]}