{"resourceType":"Bundle","id":"tests-443783af-53ae-46ed-a129-690aa58433d8-bundle","type":"transaction","entry":[{"resource":{"resourceType":"Bundle","id":"63ec0968ccb3770120fe9d74","type":"collection","entry":[{"fullUrl":"https://madie.cms.gov/Patient/443783af-53ae-46ed-a129-690aa58433d8","resource":{"resourceType":"Patient","id":"443783af-53ae-46ed-a129-690aa58433d8","meta":{"profile":["http://hl7.org/fhir/us/qicore/StructureDefinition/qicore-patient"]},"text":{"status":"generated","div":"<div xmlns=\"http://www.w3.org/1999/xhtml\"><div class=\"hapiHeaderText\">OnAdmit <b>HEMATPASS </b></div><table class=\"hapiPropertyTable\"><tbody><tr><td>Identifier</td><td>a3da21e0aa9acb035adc77fa116544b16013e74ef32aafc4f42a40ab71459966</td></tr><tr><td>Date of birth</td><td><span>15 June 1956</span></td></tr></tbody></table></div>"},"extension":[{"url":"http://hl7.org/fhir/us/core/StructureDefinition/us-core-race","extension":[{"url":"ombCategory","valueCoding":{"system":"urn:oid:2.16.840.1.113883.6.238","code":"2106-3","display":"White","userSelected":true}},{"url":"text","valueString":"White"}]},{"url":"http://hl7.org/fhir/us/core/StructureDefinition/us-core-ethnicity","extension":[{"url":"ombCategory","valueCoding":{"system":"urn:oid:2.16.840.1.113883.6.238","code":"2186-5","display":"Not Hispanic or Latino","userSelected":true}},{"url":"text","valueString":"Not Hispanic or Latino"}]}],"identifier":[{"type":{"coding":[{"system":"http://terminology.hl7.org/CodeSystem/v2-0203","code":"MR"}]},"system":"https://bonnie-fhir.healthit.gov/","value":"63ec0968ccb3770120fe9d74"}],"active":true,"name":[{"use":"usual","family":"HematPass","given":["OnAdmit"]}],"gender":"male","birthDate":"1956-06-15"}},{"fullUrl":"5e064eb09350f90000fe244a","resource":{"resourceType":"Encounter","id":"5e064eb09350f90000fe244a","meta":{"profile":["http://hl7.org/fhir/us/qicore/StructureDefinition/qicore-encounter"]},"status":"finished","class":{"system":"http://terminology.hl7.org/CodeSystem/v3-ActCode","code":"OBSENC","display":"observation encounter","userSelected":true},"type":[{"coding":[{"system":"http://snomed.info/sct","code":"183452005"}]}],"subject":{"reference":"Patient/443783af-53ae-46ed-a129-690aa58433d8"},"period":{"start":"2024-07-21T08:00:00.000+00:00","end":"2024-07-22T08:15:00.000+00:00"},"length":{"value":1.0,"unit":"days"}}},{"fullUrl":"5f9968fcb977ef0000c02ce8","resource":{"resourceType":"Coverage","id":"5f9968fcb977ef0000c02ce8","meta":{"profile":["http://hl7.org/fhir/us/qicore/StructureDefinition/qicore-coverage"]},"status":"active","type":{"coding":[{"system":"https://nahdo.org/sopt","version":"1.0.1","code":"1","display":"Medicare payer","userSelected":true}]},"beneficiary":{"reference":"Patient/443783af-53ae-46ed-a129-690aa58433d8"},"payor":[{"reference":"Organization/123456"}]}},{"fullUrl":"5e064efa9350f90000fe247c","resource":{"resourceType":"Observation","id":"5e064efa9350f90000fe247c","meta":{"profile":["http://hl7.org/fhir/us/qicore/StructureDefinition/qicore-observation"]},"status":"final","category":[{"coding":[{"system":"http://terminology.hl7.org/CodeSystem/observation-category","code":"laboratory","display":"laboratory","userSelected":true}]}],"code":{"coding":[{"system":"http://loinc.org","code":"20570-8"}]},"subject":{"reference":"Patient/443783af-53ae-46ed-a129-690aa58433d8"},"effectiveDateTime":"2023-07-21T08:00:00.000+00:00","valueQuantity":{"value":5.0}}},{"fullUrl":"http://Organization/123456","resource":{"resourceType":"Organization","id":"123456","meta":{"profile":["http://hl7.org/fhir/us/qicore/StructureDefinition/qicore-organization"]},"identifier":[{"use":"temp","system":"urn:oid:2.16.840.1.113883.4.4","value":"21-3259825"}],"active":true,"type":[{"coding":[{"system":"http://terminology.hl7.org/CodeSystem/organization-type","code":"pay","display":"Payer"}]}],"name":"Blue Cross Blue Shield of Texas","telecom":[{"system":"phone","value":"(+1) 972-766-6900"}],"address":[{"use":"billing","type":"postal","line":["P.O. Box 660044"],"city":"Dallas","state":"TX","postalCode":"75266-0044","country":"USA"}]}},{"fullUrl":"http://Practitioner/123456","resource":{"resourceType":"Practitioner","id":"practitioner-123456","meta":{"profile":["http://hl7.org/fhir/us/qicore/StructureDefinition/qicore-practitioner"]},"identifier":[{"system":"http://hl7.org/fhir/sid/us-npi","value":"123456"}],"name":[{"family":"Evil","prefix":["Dr"]}]}},{"fullUrl":"https://madie.cms.gov/MeasureReport/6385011c4ba3d47c885c02ab/443783af-53ae-46ed-a129-690aa58433d8","resource":{"resourceType":"MeasureReport","id":"390d2eee-9eef-434f-8d16-95d9792c1fe4","meta":{"profile":["http://hl7.org/fhir/us/cqfmeasures/StructureDefinition/test-case-cqfm"]},"contained":[{"resourceType":"Parameters","id":"OnAdmit-parameters","parameter":[{"name":"subject","valueString":"443783af-53ae-46ed-a129-690aa58433d8"}]}],"extension":[{"url":"http://hl7.org/fhir/us/cqfmeasures/StructureDefinition/cqfm-inputParameters","valueReference":{"reference":"#OnAdmit-parameters"}},{"url":"http://hl7.org/fhir/us/cqfmeasures/StructureDefinition/cqfm-testCaseDescription","valueMarkdown":"IP Pass; Hemat performed on admit."}],"modifierExtension":[{"url":"http://hl7.org/fhir/us/cqfmeasures/StructureDefinition/cqfm-isTestCase","valueBoolean":true}],"status":"complete","type":"individual","measure":"http://ecqi.healthit.gov/ecqms/Measure/HybridHospitalWideMortalityFHIR","period":{"start":"2024-07-01","end":"2025-06-30"},"group":[{"population":[{"code":{"coding":[{"system":"http://terminology.hl7.org/CodeSystem/measure-population","code":"initial-population","display":"Initial Population"}]},"count":1}]}],"evaluatedResource":[{"reference":"https://madie.cms.gov/Patient/443783af-53ae-46ed-a129-690aa58433d8"},{"reference":"Encounter/5e064eb09350f90000fe244a"},{"reference":"Coverage/5f9968fcb977ef0000c02ce8"},{"reference":"Observation/5e064efa9350f90000fe247c"},{"reference":"Organization/123456"},{"reference":"Practitioner/practitioner-123456"}]}}]},"request":{"method":"PUT","url":"Bundle/63ec0968ccb3770120fe9d74"}}]}