{"resourceType":"Bundle","id":"tests-a48139e2-69ab-4b38-9c35-2d76d6810483-bundle","type":"transaction","entry":[{"resource":{"resourceType":"Bundle","id":"62b1e0883968556e5150cf39","type":"collection","entry":[{"fullUrl":"https://madie.cms.gov/Patient/a48139e2-69ab-4b38-9c35-2d76d6810483","resource":{"resourceType":"Patient","id":"a48139e2-69ab-4b38-9c35-2d76d6810483","meta":{"profile":["http://hl7.org/fhir/us/qicore/StructureDefinition/qicore-patient"]},"extension":[{"url":"http://hl7.org/fhir/us/core/StructureDefinition/us-core-race","extension":[{"url":"ombCategory","valueCoding":{"system":"urn:oid:2.16.840.1.113883.6.238","code":"1002-5","display":"American Indian or Alaska Native","userSelected":true}},{"url":"text","valueString":"American Indian or Alaska Native"}]},{"url":"http://hl7.org/fhir/us/core/StructureDefinition/us-core-ethnicity","extension":[{"url":"ombCategory","valueCoding":{"system":"urn:oid:2.16.840.1.113883.6.238","code":"2135-2","display":"Hispanic or Latino","userSelected":true}},{"url":"text","valueString":"Hispanic or Latino"}]}],"identifier":[{"type":{"coding":[{"system":"http://terminology.hl7.org/CodeSystem/v2-0203","code":"MR"}]},"system":"https://bonnie-fhir.healthit.gov/","value":"62b1e0883968556e5150cf39"}],"name":[{"family":"NUMERPass","given":["12yoNegativeAdolescentDepressionScreening"]}],"gender":"male","birthDate":"2012-01-01"}},{"fullUrl":"https://madie.cms.gov/Encounter/encounter-to-screen-for-depression-cf2d","resource":{"resourceType":"Encounter","id":"encounter-to-screen-for-depression-cf2d","meta":{"profile":["http://hl7.org/fhir/us/qicore/StructureDefinition/qicore-encounter"]},"status":"finished","class":{"system":"http://terminology.hl7.org/CodeSystem/v3-ActCode","code":"AMB","display":"ambulatory"},"type":[{"coding":[{"system":"http://snomed.info/sct","version":"2021-09","code":"10197000","display":"Psychiatric interview and evaluation (procedure)","userSelected":true}]}],"subject":{"reference":"Patient/a48139e2-69ab-4b38-9c35-2d76d6810483"},"period":{"start":"2024-06-21T08:00:00.000+00:00","end":"2024-06-21T08:15:00.000+00:00"}}},{"fullUrl":"https://madie.cms.gov/Observation/adolescent-depression-screening-assessment-cf34","resource":{"resourceType":"Observation","id":"adolescent-depression-screening-assessment-cf34","meta":{"profile":["http://hl7.org/fhir/us/qicore/StructureDefinition/qicore-observation"]},"status":"final","category":[{"coding":[{"system":"http://terminology.hl7.org/CodeSystem/observation-category","code":"procedure","display":"Procedure"}]}],"code":{"coding":[{"system":"http://loinc.org","code":"73831-0","display":"Adolescent depression screening assessment","userSelected":true}]},"subject":{"reference":"Patient/a48139e2-69ab-4b38-9c35-2d76d6810483"},"effectiveDateTime":"2024-06-15T08:00:00.000+00:00","valueCodeableConcept":{"coding":[{"system":"http://snomed.info/sct","code":"428171000124102","display":"Depression screening negative (finding)","userSelected":true}]}}},{"fullUrl":"https://madie.cms.gov/MeasureReport/6435b80cd4d7050edabb033f/a48139e2-69ab-4b38-9c35-2d76d6810483","resource":{"resourceType":"MeasureReport","id":"804db3f5-3062-482c-87a8-4a5c6e45275c","meta":{"profile":["http://hl7.org/fhir/us/cqfmeasures/StructureDefinition/test-case-cqfm"]},"contained":[{"resourceType":"Parameters","id":"12yoNegativeAdolescentDepressionScreening-parameters","parameter":[{"name":"subject","valueString":"a48139e2-69ab-4b38-9c35-2d76d6810483"}]}],"extension":[{"url":"http://hl7.org/fhir/us/cqfmeasures/StructureDefinition/cqfm-inputParameters","valueReference":{"reference":"#12yoNegativeAdolescentDepressionScreening-parameters"}},{"url":"http://hl7.org/fhir/us/cqfmeasures/StructureDefinition/cqfm-testCaseDescription","valueMarkdown":"12yo male with previous negative adolescent depression screening"}],"modifierExtension":[{"url":"http://hl7.org/fhir/us/cqfmeasures/StructureDefinition/cqfm-isTestCase","valueBoolean":true}],"status":"complete","type":"individual","measure":"http://ecqi.healthit.gov/ecqms/Measure/PCSDepressionScreenAndFollowUpFHIR","period":{"start":"2024-01-01","end":"2024-12-31"},"group":[{"population":[{"code":{"coding":[{"system":"http://terminology.hl7.org/CodeSystem/measure-population","code":"initial-population","display":"Initial Population"}]},"count":1},{"code":{"coding":[{"system":"http://terminology.hl7.org/CodeSystem/measure-population","code":"denominator","display":"Denominator"}]},"count":1},{"code":{"coding":[{"system":"http://terminology.hl7.org/CodeSystem/measure-population","code":"denominator-exclusion","display":"Denominator Exclusion"}]},"count":0},{"code":{"coding":[{"system":"http://terminology.hl7.org/CodeSystem/measure-population","code":"numerator","display":"Numerator"}]},"count":1},{"code":{"coding":[{"system":"http://terminology.hl7.org/CodeSystem/measure-population","code":"denominator-exception","display":"Denominator Exception"}]},"count":0}]}],"evaluatedResource":[{"reference":"https://madie.cms.gov/Patient/a48139e2-69ab-4b38-9c35-2d76d6810483"},{"reference":"https://madie.cms.gov/Encounter/encounter-to-screen-for-depression-cf2d"},{"reference":"https://madie.cms.gov/Observation/adolescent-depression-screening-assessment-cf34"}]}}]},"request":{"method":"PUT","url":"Bundle/62b1e0883968556e5150cf39"}}]}