{
  "id": "DENOMPassICU2Locations",
  "resourceType": "Bundle",
  "type": "collection",
  "entry": [
    {
      "fullUrl": "DENOMPassICU2Locations",
      "resource": {
        "id": "DENOMPassICU2Locations",
        "meta": {
          "profile": [
            "http://hl7.org/fhir/us/qicore/StructureDefinition/qicore-patient"
          ]
        },
        "resourceType": "Patient",
        "text": {
          "status": "generated",
          "div": "<div xmlns=\"http://www.w3.org/1999/xhtml\"><div class=\"hapiHeaderText\">ICU_2Locations <b>DENOMPASS </b></div><table class=\"hapiPropertyTable\"><tbody><tr><td>Identifier</td><td>6d76be9baa47bc8df50fa14784b8bb58</td></tr><tr><td>Date of birth</td><td><span>03 March 1974</span></td></tr></tbody></table></div>"
        },
        "extension": [
          {
            "extension": [
              {
                "url": "ombCategory",
                "valueCoding": {
                  "system": "urn:oid:2.16.840.1.113883.6.238",
                  "code": "1002-5",
                  "display": "American Indian or Alaska Native",
                  "userSelected": true
                }
              },
              {
                "url": "text",
                "valueString": "American Indian or Alaska Native"
              }
            ],
            "url": "http://hl7.org/fhir/us/core/StructureDefinition/us-core-race"
          },
          {
            "extension": [
              {
                "url": "ombCategory",
                "valueCoding": {
                  "system": "urn:oid:2.16.840.1.113883.6.238",
                  "code": "2135-2",
                  "display": "Hispanic or Latino",
                  "userSelected": true
                }
              },
              {
                "url": "text",
                "valueString": "Hispanic or Latino"
              }
            ],
            "url": "http://hl7.org/fhir/us/core/StructureDefinition/us-core-ethnicity"
          }
        ],
        "identifier": [
          {
            "type": {
              "coding": [
                {
                  "system": "http://terminology.hl7.org/CodeSystem/v2-0203",
                  "code": "MR"
                }
              ]
            },
            "system": "https://bonnie-fhir.healthit.gov/",
            "value": "DENOMPassICU2Locations"
          }
        ],
        "active": true,
        "name": [
          {
            "use": "usual",
            "family": "DENOMPass",
            "given": [
              "ICU_2Locations"
            ]
          }
        ],
        "gender": "female",
        "birthDate": "1974-03-03"
      }
    },
    {
      "fullUrl": "5ce8096db848467c29eaf08c",
      "resource": {
        "id": "5ce8096db848467c29eaf08c",
        "resourceType": "Encounter",
        "meta": {
          "profile": [
            "http://hl7.org/fhir/us/qicore/StructureDefinition/qicore-encounter"
          ]
          },
        "status": "finished",
        "class": { 
              "system": "http://terminology.hl7.org/CodeSystem/v3-ActCode",
              "code": "IMP"
        },
        "type": [
          {
            "coding": [
              {
                "system": "http://snomed.info/sct",
                "code": "8715000"
              }
            ]
          }
        ],
        "subject": {
          "reference": "Patient/DENOMPassICU2Locations"
        },
        "period": {
          "start": "2022-12-04T08:00:00+00:00",
          "end": "2022-12-30T08:15:00+00:00"
        },
        "length": {
          "value": 26.0,
          "unit": "days"
        },
        "location": [
          {
            "location": {
              "reference": "Location/intensive-care-unit-108a"
            },
            "period": {
              "start": "2022-12-06T08:00:00.000+00:00",
              "end": "2022-12-08T08:15:00.000+00:00"
            }
          }
        ]
      }
    },
    {
      "fullUrl": "5fa040eb1c76ba66d9958ef2",
      "resource": {
        "id": "5fa040eb1c76ba66d9958ef2",
        "resourceType": "Coverage",
        "beneficiary": {
          "reference": "Patient/DENOMPassICU2Locations"
        },
        "status": "active",
        "payor": [
          {"reference": "Patient/DENOMPassICU2Locations"}
        ],
        "period": {
          "start": "1974-03-03T08:00:00+00:00"
        }
      }
    },
    {
      "fullUrl": "intensive-care-unit-108a",
      "resource": {
        "id": "intensive-care-unit-108a",
        "resourceType": "Location",
        "meta" : {
          "profile" : [
            "http://hl7.org/fhir/us/qicore/StructureDefinition/qicore-location"
          ]
        },
        "type": [
          {
            "coding": [
              {
                "system": "https://www.cdc.gov/nhsn/cdaportal/terminology/codesystem/hsloc.html",
                "version": "2020",
                "code": "1025-6",
                "display": "Trauma Critical Care",
                "userSelected": true
              }
            ]
          }
        ]
      }
    }
  ]
}