{"resourceType":"Bundle","id":"tests-cffad22d-5ac8-40a2-a677-a746687b0744-bundle","type":"transaction","entry":[{"resource":{"resourceType":"Bundle","id":"617be86a1619a529957d62b9","type":"collection","entry":[{"fullUrl":"https://madie.cms.gov/Patient/cffad22d-5ac8-40a2-a677-a746687b0744","resource":{"resourceType":"Patient","id":"cffad22d-5ac8-40a2-a677-a746687b0744","meta":{"profile":["http://hl7.org/fhir/us/qicore/StructureDefinition/qicore-patient"]},"extension":[{"url":"http://hl7.org/fhir/us/core/StructureDefinition/us-core-race","extension":[{"url":"ombCategory","valueCoding":{"system":"urn:oid:2.16.840.1.113883.6.238","code":"2076-8","display":"Native Hawaiian or Other Pacific Islander","userSelected":true}},{"url":"text","valueString":"Native Hawaiian or Other Pacific Islander"}]},{"url":"http://hl7.org/fhir/us/core/StructureDefinition/us-core-ethnicity","extension":[{"url":"ombCategory","valueCoding":{"system":"urn:oid:2.16.840.1.113883.6.238","code":"2186-5","display":"Not Hispanic or Latino","userSelected":true}},{"url":"text","valueString":"Not Hispanic or Latino"}]}],"identifier":[{"type":{"coding":[{"system":"http://terminology.hl7.org/CodeSystem/v2-0203","code":"MR"}]},"system":"https://bonnie-fhir.healthit.gov/","value":"617be86a1619a529957d62b9"}],"name":[{"family":"DenExcl7Fail","given":["DxStartsBeforeEndsBefore90dayPeriod"]}],"gender":"female","birthDate":"1984-12-02"}},{"fullUrl":"https://madie.cms.gov/Encounter/emergency-department-visit-330a","resource":{"resourceType":"Encounter","id":"emergency-department-visit-330a","meta":{"profile":["http://hl7.org/fhir/us/qicore/StructureDefinition/qicore-encounter"]},"status":"finished","class":{"system":"http://terminology.hl7.org/CodeSystem/v3-ActCode","code":"EMER","display":"emergency","userSelected":true},"type":[{"coding":[{"system":"http://snomed.info/sct","version":"2020-09","code":"4525004","display":"Emergency department patient visit (procedure)","userSelected":true}]}],"subject":{"reference":"Patient/617be86a1619a529957d62b9"},"period":{"start":"2024-10-09T08:05:00.000+00:00","end":"2024-10-10T07:15:00.000+00:00"}}},{"fullUrl":"https://madie.cms.gov/Condition/stemi-330b","resource":{"resourceType":"Condition","id":"stemi-330b","meta":{"profile":["http://hl7.org/fhir/us/qicore/StructureDefinition/qicore-condition"]},"clinicalStatus":{"coding":[{"system":"http://terminology.hl7.org/CodeSystem/condition-clinical","code":"active","display":"active","userSelected":true}]},"category":[{"coding":[{"system":"http://terminology.hl7.org/CodeSystem/condition-category","code":"encounter-diagnosis","display":"Encounter Diagnosis","userSelected":true}]}],"code":{"coding":[{"system":"http://snomed.info/sct","version":"2020-09","code":"401303003","display":"Acute ST segment elevation myocardial infarction (disorder)","userSelected":true}]},"subject":{"reference":"Patient/617be86a1619a529957d62b9"},"onsetDateTime":"2024-10-09T08:30:00.000+00:00"}},{"fullUrl":"https://madie.cms.gov/Condition/closed-head-trauma-62b8","resource":{"resourceType":"Condition","id":"closed-head-trauma-62b8","meta":{"profile":["http://hl7.org/fhir/us/qicore/StructureDefinition/qicore-condition"]},"clinicalStatus":{"coding":[{"system":"http://terminology.hl7.org/CodeSystem/condition-clinical","version":"4.0.1","code":"inactive","display":"Inactive","userSelected":true}]},"category":[{"coding":[{"system":"http://terminology.hl7.org/CodeSystem/condition-category","code":"encounter-diagnosis","display":"Encounter Diagnosis","userSelected":true}]}],"code":{"coding":[{"system":"http://snomed.info/sct","version":"2020-03","code":"10061007","display":"Brain stem contusion without open intracranial wound AND with prolonged loss of consciousness (more than 24 hours) AND return to pre-existing conscious level (disorder)","userSelected":true}]},"subject":{"reference":"Patient/617be86a1619a529957d62b9"},"onsetDateTime":"2024-01-01T08:00:00.000+00:00","abatementDateTime":"2024-05-20T09:30:00.000+00:00"}},{"fullUrl":"https://madie.cms.gov/MeasureReport/6384fdb64ba3d47c885c02a7/cffad22d-5ac8-40a2-a677-a746687b0744","resource":{"resourceType":"MeasureReport","id":"424c112b-e844-4ebe-878c-006139e8cd0e","meta":{"profile":["http://hl7.org/fhir/us/cqfmeasures/StructureDefinition/test-case-cqfm"]},"contained":[{"resourceType":"Parameters","id":"DxSTartsBeforeEndsBefore90dayPeriod-parameters","parameter":[{"name":"subject","valueString":"cffad22d-5ac8-40a2-a677-a746687b0744"}]}],"extension":[{"url":"http://hl7.org/fhir/us/cqfmeasures/StructureDefinition/cqfm-inputParameters","valueReference":{"reference":"#DxSTartsBeforeEndsBefore90dayPeriod-parameters"}},{"url":"http://hl7.org/fhir/us/cqfmeasures/StructureDefinition/cqfm-testCaseDescription","valueMarkdown":"Patient has closed head trauma (exclusion diagnosis) starts during 90 day period and ends during ED"}],"modifierExtension":[{"url":"http://hl7.org/fhir/us/cqfmeasures/StructureDefinition/cqfm-isTestCase","valueBoolean":true}],"status":"complete","type":"individual","measure":"http://ecqi.healthit.gov/ecqms/Measure/AppropriateTreatmentforSTEMIFHIR","period":{"start":"2024-01-01","end":"2024-12-31"},"group":[{"population":[{"code":{"coding":[{"system":"http://terminology.hl7.org/CodeSystem/measure-population","code":"initial-population","display":"Initial Population"}]},"count":1},{"code":{"coding":[{"system":"http://terminology.hl7.org/CodeSystem/measure-population","code":"denominator","display":"Denominator"}]},"count":1},{"code":{"coding":[{"system":"http://terminology.hl7.org/CodeSystem/measure-population","code":"denominator-exclusion","display":"Denominator Exclusion"}]},"count":0},{"code":{"coding":[{"system":"http://terminology.hl7.org/CodeSystem/measure-population","code":"numerator","display":"Numerator"}]},"count":0}]}],"evaluatedResource":[{"reference":"https://madie.cms.gov/Patient/cffad22d-5ac8-40a2-a677-a746687b0744"},{"reference":"https://madie.cms.gov/Encounter/emergency-department-visit-330a"},{"reference":"https://madie.cms.gov/Condition/stemi-330b"},{"reference":"https://madie.cms.gov/Condition/closed-head-trauma-62b8"}]}}]},"request":{"method":"PUT","url":"Bundle/617be86a1619a529957d62b9"}}]}