{"resourceType":"Bundle","id":"tests-1a75e113-5ea8-4341-b940-deb8b5a152e6-bundle","type":"transaction","entry":[{"resource":{"resourceType":"Bundle","id":"617bf16e1619a529957d62c5","type":"collection","entry":[{"fullUrl":"https://madie.cms.gov/Patient/1a75e113-5ea8-4341-b940-deb8b5a152e6","resource":{"resourceType":"Patient","id":"1a75e113-5ea8-4341-b940-deb8b5a152e6","meta":{"profile":["http://hl7.org/fhir/us/qicore/StructureDefinition/qicore-patient"]},"extension":[{"url":"http://hl7.org/fhir/us/core/StructureDefinition/us-core-race","extension":[{"url":"ombCategory","valueCoding":{"system":"urn:oid:2.16.840.1.113883.6.238","code":"2054-5","display":"Black or African American","userSelected":true}},{"url":"text","valueString":"Black or African American"}]},{"url":"http://hl7.org/fhir/us/core/StructureDefinition/us-core-ethnicity","extension":[{"url":"ombCategory","valueCoding":{"system":"urn:oid:2.16.840.1.113883.6.238","code":"2186-5","display":"Not Hispanic or Latino","userSelected":true}},{"url":"text","valueString":"Not Hispanic or Latino"}]}],"identifier":[{"type":{"coding":[{"system":"http://terminology.hl7.org/CodeSystem/v2-0203","code":"MR"}]},"system":"https://bonnie-fhir.healthit.gov/","value":"617bf16e1619a529957d62c5"}],"name":[{"family":"DenExcl7Pass","given":["DxStartsandEndsDuring90dayPeriod"]}],"gender":"female","birthDate":"1984-12-02"}},{"fullUrl":"https://madie.cms.gov/Encounter/emergency-department-visit-330a","resource":{"resourceType":"Encounter","id":"emergency-department-visit-330a","meta":{"profile":["http://hl7.org/fhir/us/qicore/StructureDefinition/qicore-encounter"]},"status":"finished","class":{"system":"http://terminology.hl7.org/CodeSystem/v3-ActCode","code":"EMER","display":"emergency","userSelected":true},"type":[{"coding":[{"system":"http://snomed.info/sct","version":"2020-09","code":"4525004","display":"Emergency department patient visit (procedure)","userSelected":true}]}],"subject":{"reference":"Patient/617bf16e1619a529957d62c5"},"period":{"start":"2024-10-09T08:05:00.000+00:00","end":"2024-10-10T07:15:00.000+00:00"}}},{"fullUrl":"https://madie.cms.gov/Condition/stemi-330b","resource":{"resourceType":"Condition","id":"stemi-330b","meta":{"profile":["http://hl7.org/fhir/us/qicore/StructureDefinition/qicore-condition"]},"clinicalStatus":{"coding":[{"system":"http://terminology.hl7.org/CodeSystem/condition-clinical","code":"active","display":"active","userSelected":true}]},"category":[{"coding":[{"system":"http://terminology.hl7.org/CodeSystem/condition-category","code":"encounter-diagnosis","display":"Encounter Diagnosis","userSelected":true}]}],"code":{"coding":[{"system":"http://snomed.info/sct","version":"2020-09","code":"401303003","display":"Acute ST segment elevation myocardial infarction (disorder)","userSelected":true}]},"subject":{"reference":"Patient/617bf16e1619a529957d62c5"},"onsetDateTime":"2024-10-09T08:30:00.000+00:00"}},{"fullUrl":"https://madie.cms.gov/Condition/ischemic-stroke-62c6","resource":{"resourceType":"Condition","id":"ischemic-stroke-62c6","meta":{"profile":["http://hl7.org/fhir/us/qicore/StructureDefinition/qicore-condition"]},"clinicalStatus":{"coding":[{"system":"http://terminology.hl7.org/CodeSystem/condition-clinical","version":"4.0.1","code":"inactive","display":"Inactive","userSelected":true}]},"category":[{"coding":[{"system":"http://terminology.hl7.org/CodeSystem/condition-category","code":"encounter-diagnosis","display":"Encounter Diagnosis","userSelected":true}]}],"code":{"coding":[{"system":"http://snomed.info/sct","version":"2020-09","code":"195186005","display":"Cerebral infarction due to embolism of precerebral arteries (disorder)","userSelected":true}]},"subject":{"reference":"Patient/617bf16e1619a529957d62c5"},"onsetDateTime":"2024-08-20T08:00:00.000+00:00","abatementDateTime":"2024-10-01T09:15:00.000+00:00"}},{"fullUrl":"https://madie.cms.gov/MeasureReport/6384fdb64ba3d47c885c02a7/1a75e113-5ea8-4341-b940-deb8b5a152e6","resource":{"resourceType":"MeasureReport","id":"e0de377b-17df-47d2-ae1d-076aedf54e11","meta":{"profile":["http://hl7.org/fhir/us/cqfmeasures/StructureDefinition/test-case-cqfm"]},"contained":[{"resourceType":"Parameters","id":"DxStartsandEndsDuring90dayPeriod-parameters","parameter":[{"name":"subject","valueString":"1a75e113-5ea8-4341-b940-deb8b5a152e6"}]}],"extension":[{"url":"http://hl7.org/fhir/us/cqfmeasures/StructureDefinition/cqfm-inputParameters","valueReference":{"reference":"#DxStartsandEndsDuring90dayPeriod-parameters"}},{"url":"http://hl7.org/fhir/us/cqfmeasures/StructureDefinition/cqfm-testCaseDescription","valueMarkdown":"Patient has Ischemic Stroke (exclusion diagnosis) starts during and ends during 90 day period"}],"modifierExtension":[{"url":"http://hl7.org/fhir/us/cqfmeasures/StructureDefinition/cqfm-isTestCase","valueBoolean":true}],"status":"complete","type":"individual","measure":"http://ecqi.healthit.gov/ecqms/Measure/AppropriateTreatmentforSTEMIFHIR","period":{"start":"2024-01-01","end":"2024-12-31"},"group":[{"population":[{"code":{"coding":[{"system":"http://terminology.hl7.org/CodeSystem/measure-population","code":"initial-population","display":"Initial Population"}]},"count":1},{"code":{"coding":[{"system":"http://terminology.hl7.org/CodeSystem/measure-population","code":"denominator","display":"Denominator"}]},"count":1},{"code":{"coding":[{"system":"http://terminology.hl7.org/CodeSystem/measure-population","code":"denominator-exclusion","display":"Denominator Exclusion"}]},"count":1},{"code":{"coding":[{"system":"http://terminology.hl7.org/CodeSystem/measure-population","code":"numerator","display":"Numerator"}]},"count":0}]}],"evaluatedResource":[{"reference":"https://madie.cms.gov/Patient/1a75e113-5ea8-4341-b940-deb8b5a152e6"},{"reference":"https://madie.cms.gov/Encounter/emergency-department-visit-330a"},{"reference":"https://madie.cms.gov/Condition/stemi-330b"},{"reference":"https://madie.cms.gov/Condition/ischemic-stroke-62c6"}]}}]},"request":{"method":"PUT","url":"Bundle/617bf16e1619a529957d62c5"}}]}