{"resourceType":"Bundle","id":"tests-4d38551c-5f48-499c-9e6f-ef6ba800c320-bundle","type":"transaction","entry":[{"resource":{"resourceType":"Bundle","id":"617b06d8513b5d1ee28b756d","type":"collection","entry":[{"fullUrl":"https://madie.cms.gov/Patient/4d38551c-5f48-499c-9e6f-ef6ba800c320","resource":{"resourceType":"Patient","id":"4d38551c-5f48-499c-9e6f-ef6ba800c320","meta":{"profile":["http://hl7.org/fhir/us/qicore/StructureDefinition/qicore-patient"]},"extension":[{"url":"http://hl7.org/fhir/us/core/StructureDefinition/us-core-race","extension":[{"url":"ombCategory","valueCoding":{"system":"urn:oid:2.16.840.1.113883.6.238","code":"2028-9","display":"Asian","userSelected":true}},{"url":"text","valueString":"Asian"},{"url":"detailed","valueCoding":{"system":"urn:oid:2.16.840.1.113883.6.238","code":"1653-5","display":"Tohono O'Odham"}}]},{"url":"http://hl7.org/fhir/us/core/StructureDefinition/us-core-ethnicity","extension":[{"url":"ombCategory","valueCoding":{"system":"urn:oid:2.16.840.1.113883.6.238","code":"2135-2","display":"Hispanic or Latino","userSelected":true}},{"url":"text","valueString":"Not Hispanic or Latino"},{"url":"detailed","valueCoding":{"system":"urn:oid:2.16.840.1.113883.6.238","code":"2153-5","display":"Mexican American Indian"}}]}],"identifier":[{"type":{"coding":[{"system":"http://terminology.hl7.org/CodeSystem/v2-0203","code":"MR"}]},"system":"https://bonnie-fhir.healthit.gov/","value":"617b06d8513b5d1ee28b756d"}],"name":[{"family":"IPPass","given":["EncDuringMP"]}],"gender":"female","birthDate":"1984-12-02"}},{"fullUrl":"https://madie.cms.gov/Encounter/emergency-department-visit-e632","resource":{"resourceType":"Encounter","id":"emergency-department-visit-e632","meta":{"profile":["http://hl7.org/fhir/us/qicore/StructureDefinition/qicore-encounter"]},"status":"finished","class":{"system":"http://terminology.hl7.org/CodeSystem/v3-ActCode","code":"EMER","display":"emergency","userSelected":true},"type":[{"coding":[{"system":"http://snomed.info/sct","version":"2020-09","code":"4525004","display":"Emergency department patient visit (procedure)","userSelected":true}]}],"subject":{"reference":"Patient/4d38551c-5f48-499c-9e6f-ef6ba800c320"},"period":{"start":"2024-10-09T08:05:00.000+00:00","end":"2024-10-10T07:15:00.000+00:00"},"diagnosis":[{"condition":{"reference":"Condition/stemi-e633"}}]}},{"fullUrl":"https://madie.cms.gov/Condition/stemi-e633","resource":{"resourceType":"Condition","id":"stemi-e633","meta":{"profile":["http://hl7.org/fhir/us/qicore/StructureDefinition/qicore-condition"]},"clinicalStatus":{"coding":[{"system":"http://terminology.hl7.org/CodeSystem/condition-clinical","code":"active","display":"active","userSelected":true}]},"category":[{"coding":[{"system":"http://terminology.hl7.org/CodeSystem/condition-category","code":"encounter-diagnosis","display":"Encounter Diagnosis","userSelected":true}]}],"code":{"coding":[{"system":"http://snomed.info/sct","version":"2020-09","code":"401303003","display":"Acute ST segment elevation myocardial infarction (disorder)","userSelected":true}]},"subject":{"reference":"Patient/4d38551c-5f48-499c-9e6f-ef6ba800c320"},"recordedDate":"2024-10-09T08:00:00.000+00:00"}},{"fullUrl":"https://madie.cms.gov/MeasureReport/6384fdb64ba3d47c885c02a7/4d38551c-5f48-499c-9e6f-ef6ba800c320","resource":{"resourceType":"MeasureReport","id":"09a092b2-1e18-435b-a535-c6973ed6fd03","meta":{"profile":["http://hl7.org/fhir/us/cqfmeasures/StructureDefinition/test-case-cqfm"]},"contained":[{"resourceType":"Parameters","id":"EncDuringMPandRaceEthnicity-parameters","parameter":[{"name":"subject","valueString":"4d38551c-5f48-499c-9e6f-ef6ba800c320"}]}],"extension":[{"url":"http://hl7.org/fhir/us/cqfmeasures/StructureDefinition/cqfm-inputParameters","valueReference":{"reference":"#EncDuringMPandRaceEthnicity-parameters"}},{"url":"http://hl7.org/fhir/us/cqfmeasures/StructureDefinition/cqfm-testCaseDescription","valueMarkdown":"Patient is over 18 years old and has an encounter during the MP"}],"modifierExtension":[{"url":"http://hl7.org/fhir/us/cqfmeasures/StructureDefinition/cqfm-isTestCase","valueBoolean":true}],"status":"complete","type":"individual","measure":"http://ecqi.healthit.gov/ecqms/Measure/AppropriateTreatmentforSTEMIFHIR","period":{"start":"2024-01-01","end":"2024-12-31"},"group":[{"population":[{"code":{"coding":[{"system":"http://terminology.hl7.org/CodeSystem/measure-population","code":"initial-population","display":"Initial Population"}]},"count":1},{"code":{"coding":[{"system":"http://terminology.hl7.org/CodeSystem/measure-population","code":"denominator","display":"Denominator"}]},"count":1},{"code":{"coding":[{"system":"http://terminology.hl7.org/CodeSystem/measure-population","code":"denominator-exclusion","display":"Denominator Exclusion"}]},"count":0},{"code":{"coding":[{"system":"http://terminology.hl7.org/CodeSystem/measure-population","code":"numerator","display":"Numerator"}]},"count":0}]}],"evaluatedResource":[{"reference":"https://madie.cms.gov/Patient/4d38551c-5f48-499c-9e6f-ef6ba800c320"},{"reference":"https://madie.cms.gov/Encounter/emergency-department-visit-e632"},{"reference":"https://madie.cms.gov/Condition/stemi-e633"}]}}]},"request":{"method":"PUT","url":"Bundle/617b06d8513b5d1ee28b756d"}}]}