{"resourceType":"Bundle","id":"tests-5230ea22-66f1-4132-9acf-0e810f578472-bundle","type":"transaction","entry":[{"resource":{"resourceType":"Bundle","id":"617bfb091289f5673c8ceffb","type":"collection","entry":[{"fullUrl":"https://madie.cms.gov/Patient/5230ea22-66f1-4132-9acf-0e810f578472","resource":{"resourceType":"Patient","id":"5230ea22-66f1-4132-9acf-0e810f578472","meta":{"profile":["http://hl7.org/fhir/us/qicore/StructureDefinition/qicore-patient"]},"extension":[{"url":"http://hl7.org/fhir/us/core/StructureDefinition/us-core-race","extension":[{"url":"ombCategory","valueCoding":{"system":"urn:oid:2.16.840.1.113883.6.238","code":"2076-8","display":"Native Hawaiian or Other Pacific Islander","userSelected":true}},{"url":"text","valueString":"Native Hawaiian or Other Pacific Islander"}]},{"url":"http://hl7.org/fhir/us/core/StructureDefinition/us-core-ethnicity","extension":[{"url":"ombCategory","valueCoding":{"system":"urn:oid:2.16.840.1.113883.6.238","code":"2135-2","display":"Hispanic or Latino","userSelected":true}},{"url":"text","valueString":"Hispanic or Latino"}]}],"identifier":[{"type":{"coding":[{"system":"http://terminology.hl7.org/CodeSystem/v2-0203","code":"MR"}]},"system":"https://bonnie-fhir.healthit.gov/","value":"617bfb091289f5673c8ceffb"}],"name":[{"family":"DenExcl9Pass","given":["AdverseEventStartsBeforeEDStart"]}],"gender":"female","birthDate":"1984-12-02"}},{"fullUrl":"https://madie.cms.gov/Encounter/emergency-department-visit-eff9","resource":{"resourceType":"Encounter","id":"emergency-department-visit-eff9","meta":{"profile":["http://hl7.org/fhir/us/qicore/StructureDefinition/qicore-encounter"]},"status":"finished","class":{"system":"http://terminology.hl7.org/CodeSystem/v3-ActCode","code":"EMER","display":"emergency","userSelected":true},"type":[{"coding":[{"system":"http://snomed.info/sct","version":"2020-09","code":"4525004","display":"Emergency department patient visit (procedure)","userSelected":true}]}],"subject":{"reference":"Patient/617bfb091289f5673c8ceffb"},"period":{"start":"2024-10-09T08:05:00.000+00:00","end":"2024-10-10T07:15:00.000+00:00"},"reasonCode":[{"coding":[{"system":"http://hl7.org/fhir/sid/icd-10-cm","version":"2021","code":"I21.21","display":"ST elevation (STEMI) myocardial infarction involving left circumflex coronary artery","userSelected":true}]}]}},{"fullUrl":"https://madie.cms.gov/AdverseEvent/thrombolytic-medications-effa","resource":{"resourceType":"AdverseEvent","id":"thrombolytic-medications-effa","meta":{"profile":["http://hl7.org/fhir/us/qicore/StructureDefinition/qicore-adverseevent"]},"extension":[{"url":"http://hl7.org/fhir/ValueSet/adverse-event-category","valueCodeableConcept":{"coding":[{"system":"http://snomed.info/sct","version":"2020-09","code":"293572000","display":"Urokinase adverse reaction (disorder)","userSelected":true}]}}],"actuality":"actual","event":{"coding":[{"system":"http://snomed.info/sct","version":"2020-09","code":"293572000","display":"Urokinase adverse reaction (disorder)","userSelected":true}]},"subject":{"reference":"Patient/617bfb091289f5673c8ceffb"},"recordedDate":"2024-10-08T08:00:00.000+00:00"}},{"fullUrl":"https://madie.cms.gov/MeasureReport/6384fdb64ba3d47c885c02a7/5230ea22-66f1-4132-9acf-0e810f578472","resource":{"resourceType":"MeasureReport","id":"e7fb9992-34d7-4a47-8562-5990e8d8cf55","meta":{"profile":["http://hl7.org/fhir/us/cqfmeasures/StructureDefinition/test-case-cqfm"]},"contained":[{"resourceType":"Parameters","id":"AdverseEventStartsBeforeEDStart-parameters","parameter":[{"name":"subject","valueString":"5230ea22-66f1-4132-9acf-0e810f578472"}]}],"extension":[{"url":"http://hl7.org/fhir/us/cqfmeasures/StructureDefinition/cqfm-inputParameters","valueReference":{"reference":"#AdverseEventStartsBeforeEDStart-parameters"}},{"url":"http://hl7.org/fhir/us/cqfmeasures/StructureDefinition/cqfm-testCaseDescription","valueMarkdown":"Patient has adverse event starts before start of ED"}],"modifierExtension":[{"url":"http://hl7.org/fhir/us/cqfmeasures/StructureDefinition/cqfm-isTestCase","valueBoolean":true}],"status":"complete","type":"individual","measure":"http://ecqi.healthit.gov/ecqms/Measure/AppropriateTreatmentforSTEMIFHIR","period":{"start":"2024-01-01","end":"2024-12-31"},"group":[{"population":[{"code":{"coding":[{"system":"http://terminology.hl7.org/CodeSystem/measure-population","code":"initial-population","display":"Initial Population"}]},"count":1},{"code":{"coding":[{"system":"http://terminology.hl7.org/CodeSystem/measure-population","code":"denominator","display":"Denominator"}]},"count":1},{"code":{"coding":[{"system":"http://terminology.hl7.org/CodeSystem/measure-population","code":"denominator-exclusion","display":"Denominator Exclusion"}]},"count":1},{"code":{"coding":[{"system":"http://terminology.hl7.org/CodeSystem/measure-population","code":"numerator","display":"Numerator"}]},"count":0}]}],"evaluatedResource":[{"reference":"https://madie.cms.gov/Patient/5230ea22-66f1-4132-9acf-0e810f578472"},{"reference":"https://madie.cms.gov/Encounter/emergency-department-visit-eff9"},{"reference":"https://madie.cms.gov/AdverseEvent/thrombolytic-medications-effa"}]}}]},"request":{"method":"PUT","url":"Bundle/617bfb091289f5673c8ceffb"}}]}