{
  "resourceType": "Bundle",
  "type": "collection",
  "entry": [
    {
      "resource": {
        "resourceType": "Organization",
        "id": "acme",
        "meta": {
          "profile": [ "http://hl7.org/fhir/us/qicore/StructureDefinition/qicore-organization" ]
        },
        "extension": [
          {
            "url": "http://cms.gov/fhir/mct/StructureDefinition/mct-receivingSystemEndpoint",
            "valueReference": {
              "reference": "Endpoint/local-receiving-system-endpoint"
            }
          }
        ],
        "identifier": [{
          "system": "urn:oid:2.16.840.1.113883.4.336",
          "use": "secondary",
          "value": "ACME-CCN"
        }, {
          "system": "http://hl7.org/fhir/sid/us-npi",
          "use": "secondary",
          "value": "ACME-NPI"
        }, {
          "system": "urn:oid:2.16.840.1.113883.4.4",
          "use": "secondary",
          "value": "ACME-EIN"
        }],
        "active": true,
        "name": "Multiple Facility Organization",
        "telecom": [{
          "system": "url",
          "value": "https://acme.org",
          "use": "work"
        }],
        "address": [{
          "use": "work",
          "type": "both",
          "line": [ "123 Erewhon" ],
          "city": "Dayton",
          "state": "OH",
          "postalCode": "45410"
        }]
      }
    },
    {
      "resource": {
        "resourceType": "Organization",
        "id": "acme-local-test-org",
        "meta": {
          "profile": [ "http://hl7.org/fhir/us/qicore/StructureDefinition/qicore-organization" ]
        },
        "extension": [
          {
            "url": "http://cms.gov/fhir/mct/StructureDefinition/mct-receivingSystemEndpoint",
            "valueReference": {
              "reference": "Endpoint/local-receiving-system-endpoint"
            }
          }
        ],
        "identifier": [{
          "system": "urn:oid:2.16.840.1.113883.4.336",
          "use": "secondary",
          "value": "ACME-CCN"
        }],
        "active": true,
        "name": "Single Facility Organization",
        "telecom": [{
          "system": "url",
          "value": "https://acme.org",
          "use": "work"
        }],
        "address": [{
          "use": "work",
          "type": "both",
          "line": [ "123 Erewhon" ],
          "city": "Dayton",
          "state": "OH",
          "postalCode": "45410"
        }]
      }
    },
    {
      "resource": {
        "resourceType": "Location",
        "id": "local-test",
        "meta": {
          "profile": [ "http://hl7.org/fhir/us/qicore/StructureDefinition/qicore-location" ]
        },
        "contained": [{
          "id": "local-test-endpoint",
          "resourceType": "Endpoint",
          "status": "active",
          "connectionType": {
            "system": "http://terminology.hl7.org/CodeSystem/endpoint-connection-type",
            "code": "hl7-fhir-rest"
          },
          "payloadType": [{
            "coding": [{
              "system": "http://terminology.hl7.org/CodeSystem/endpoint-payload-type",
              "code": "any"
            }]
          }],
          "payloadMimeType": [ "application/fhir+json" ],
          "address": "http://localhost:8080/fhir"
        }],
        "identifier": [{
          "use": "usual",
          "system": "http://acme.org/location-identifiers",
          "value": "Facility_A"
        }],
        "status": "active",
        "name": "Facility A",
        "mode": "instance",
        "managingOrganization": {
          "reference": "Organization/acme-local-test-org"
        },
        "endpoint": [{
          "reference": "#local-test-endpoint"
        }]
      }
    },
    {
      "resource": {
        "id": "acme-north",
        "resourceType": "Location",
        "meta": {
          "profile": [ "http://hl7.org/fhir/us/qicore/StructureDefinition/qicore-location" ]
        },
        "contained": [{
          "id": "acme-north-endpoint",
          "resourceType": "Endpoint",
          "status": "active",
          "connectionType": {
            "system": "http://terminology.hl7.org/CodeSystem/endpoint-connection-type",
            "code": "hl7-fhir-rest"
          },
          "payloadType": [{
            "coding": [{
              "system": "http://terminology.hl7.org/CodeSystem/endpoint-payload-type",
              "code": "any"
            }]
          }],
          "payloadMimeType": [ "application/fhir+json" ],
          "address": "http://localhost:8080/fhir"
        }],
        "identifier": [{
          "use": "usual",
          "system": "http://acme.org/location-identifiers",
          "value": "Facility_A"
        }],
        "status": "active",
        "name": "Facility A",
        "mode": "instance",
        "managingOrganization": {
          "reference": "Organization/acme"
        },
        "endpoint": [{
          "reference": "#acme-north-endpoint"
        }]
      }
    },
    {
      "resource": {
        "id": "acme-south",
        "resourceType": "Location",
        "meta": {
          "profile": [ "http://hl7.org/fhir/us/qicore/StructureDefinition/qicore-location" ]
        },
        "contained": [{
          "id": "acme-south-endpoint",
          "resourceType": "Endpoint",
          "status": "active",
          "connectionType": {
            "system": "http://terminology.hl7.org/CodeSystem/endpoint-connection-type",
            "code": "hl7-fhir-rest"
          },
          "payloadType": [{
            "coding": [{
              "system": "http://terminology.hl7.org/CodeSystem/endpoint-payload-type",
              "code": "any"
            }]
          }],
          "payloadMimeType": [ "application/fhir+json" ],
          "address": "http://localhost:8082/fhir"
        }],
        "identifier": [{
          "use": "usual",
          "system": "http://acme.org/location-identifiers",
          "value": "Facility_B"
        }],
        "status": "active",
        "name": "Facility B",
        "mode": "instance",
        "managingOrganization": {
          "reference": "Organization/acme"
        },
        "endpoint": [{
          "reference": "#acme-south-endpoint"
        }]
      }
    }
  ]
}