{"resourceType":"Bundle","id":"tests-4dd85cf1-18a3-44ed-8a72-096694776335-bundle","type":"transaction","entry":[{"resource":{"resourceType":"Bundle","id":"61095b0998086b53805591a5","type":"collection","entry":[{"fullUrl":"https://madie.cms.gov/Patient/4dd85cf1-18a3-44ed-8a72-096694776335","resource":{"resourceType":"Patient","id":"4dd85cf1-18a3-44ed-8a72-096694776335","meta":{"profile":["http://hl7.org/fhir/us/qicore/StructureDefinition/qicore-patient"]},"text":{"status":"generated","div":"<div xmlns=\"http://www.w3.org/1999/xhtml\"><div class=\"hapiHeaderText\">Age@18 <b>DENOMPASS </b></div><table class=\"hapiPropertyTable\"><tbody><tr><td>Identifier</td><td>67f3e33acf17bcb386e754d726ed064ccd48ba21ff0ffb2eb678740a684398be</td></tr><tr><td>Date of birth</td><td><span>01 January 1994</span></td></tr></tbody></table></div>"},"extension":[{"url":"http://hl7.org/fhir/us/core/StructureDefinition/us-core-race","extension":[{"url":"ombCategory","valueCoding":{"system":"urn:oid:2.16.840.1.113883.6.238","code":"1002-5","display":"American Indian or Alaska Native","userSelected":true}},{"url":"text","valueString":"American Indian or Alaska Native"}]},{"url":"http://hl7.org/fhir/us/core/StructureDefinition/us-core-ethnicity","extension":[{"url":"ombCategory","valueCoding":{"system":"urn:oid:2.16.840.1.113883.6.238","code":"2135-2","display":"Hispanic or Latino","userSelected":true}},{"url":"text","valueString":"Hispanic or Latino"}]}],"identifier":[{"type":{"coding":[{"system":"http://terminology.hl7.org/CodeSystem/v2-0203","code":"MR"}]},"system":"https://bonnie-fhir.healthit.gov/","value":"61095b0998086b53805591a5"}],"active":true,"name":[{"use":"usual","family":"NUMFail","given":["VisualAcuityExamPerformedinDec"]}],"gender":"female","birthDate":"1994-01-01"}},{"fullUrl":"http://myGoodHealthcare.com/fhir/Observation/5c9a4252b84846291b7a7085","resource":{"resourceType":"Observation","id":"5c9a4252b84846291b7a7085","meta":{"profile":["http://hl7.org/fhir/us/qicore/StructureDefinition/qicore-observation"]},"status":"final","category":[{"coding":[{"system":"http://terminology.hl7.org/CodeSystem/observation-category","code":"exam","display":"Exam"}]}],"code":{"coding":[{"system":"http://snomed.info/sct","code":"419775003"}]},"subject":{"reference":"Patient/4dd85cf1-18a3-44ed-8a72-096694776335"},"effectivePeriod":{"start":"2024-03-13T09:00:00+00:00","end":"2024-03-13T09:30:00+00:00"}}},{"fullUrl":"http://myGoodHealthcare.com/fhir/Procedure/5c9a4252b84846291b7a7084","resource":{"resourceType":"Procedure","id":"5c9a4252b84846291b7a7084","meta":{"profile":["http://hl7.org/fhir/us/qicore/StructureDefinition/qicore-procedure"]},"extension":[{"url":"http://hl7.org/fhir/us/qicore/StructureDefinition/qicore-recorded","valueDateTime":"2024-03-05T09:35:00-04:00"}],"status":"completed","code":{"coding":[{"system":"http://snomed.info/sct","code":"84149000"}]},"subject":{"reference":"Patient/4dd85cf1-18a3-44ed-8a72-096694776335"},"performedPeriod":{"start":"2024-03-05T09:20:00-04:00","end":"2024-03-05T10:30:00-04:00"}}},{"fullUrl":"http://myGoodHealthcare.com/fhir/Coverage/1","resource":{"resourceType":"Coverage","id":"1","meta":{"profile":["http://hl7.org/fhir/us/qicore/StructureDefinition/qicore-coverage"]},"status":"active","beneficiary":{"reference":"Patient/4dd85cf1-18a3-44ed-8a72-096694776335"},"payor":[{"reference":"Organization/123456"}]}},{"fullUrl":"http://myGoodHealthcare.com/fhir/Organization/123456","resource":{"resourceType":"Organization","id":"123456","meta":{"profile":["http://hl7.org/fhir/us/qicore/StructureDefinition/qicore-organization"]},"identifier":[{"use":"temp","system":"urn:oid:2.16.840.1.113883.4.4","value":"21-3259825"}],"active":true,"type":[{"coding":[{"system":"http://terminology.hl7.org/CodeSystem/organization-type","code":"pay","display":"Payer"}]}],"name":"Blue Cross Blue Shield of Texas","telecom":[{"system":"phone","value":"(+1) 972-766-6900"}],"address":[{"use":"billing","type":"postal","line":["P.O. Box 660044"],"city":"Dallas","state":"TX","postalCode":"75266-0044","country":"USA"}]}},{"fullUrl":"http://myGoodHealthcare.com/fhir/Observation/est-corrected-visual-acuity-observable-entity-3244","resource":{"resourceType":"Observation","id":"best-corrected-visual-acuity-observable-entity-3244","meta":{"profile":["http://hl7.org/fhir/us/qicore/StructureDefinition/qicore-observation"]},"status":"final","category":[{"coding":[{"system":"http://terminology.hl7.org/CodeSystem/observation-category","code":"exam","display":"Exam"}]}],"code":{"coding":[{"system":"http://snomed.info/sct","code":"419775003","display":"Best corrected visual acuity (observable entity)","userSelected":true}]},"subject":{"reference":"Patient/4dd85cf1-18a3-44ed-8a72-096694776335"},"effectiveDateTime":"2024-12-16T08:00:00.000+00:00","issued":"2024-12-16T08:00:00.000+00:00","valueCodeableConcept":{"coding":[{"system":"http://snomed.info/sct","code":"422497000","display":"Distance vision 20/20 (finding)","userSelected":true}]}}},{"fullUrl":"http://myGoodHealthcare.com/fhir/Practitioner/123456","resource":{"resourceType":"Practitioner","id":"practitioner-123456","meta":{"profile":["http://hl7.org/fhir/us/qicore/StructureDefinition/qicore-practitioner"]},"identifier":[{"system":"http://hl7.org/fhir/sid/us-npi","value":"123456"}],"name":[{"family":"Evil","prefix":["Dr"]}]}},{"fullUrl":"https://madie.cms.gov/MeasureReport/64529e07beb771640fc4cc0a/4dd85cf1-18a3-44ed-8a72-096694776335","resource":{"resourceType":"MeasureReport","id":"46bf0802-b5de-47f2-b9a1-dbaddd711d24","meta":{"profile":["http://hl7.org/fhir/us/cqfmeasures/StructureDefinition/test-case-cqfm"]},"contained":[{"resourceType":"Parameters","id":"VisualAcuityExamPerformedinDec-parameters","parameter":[{"name":"subject","valueString":"4dd85cf1-18a3-44ed-8a72-096694776335"}]}],"extension":[{"url":"http://hl7.org/fhir/us/cqfmeasures/StructureDefinition/cqfm-inputParameters","valueReference":{"reference":"#VisualAcuityExamPerformedinDec-parameters"}},{"url":"http://hl7.org/fhir/us/cqfmeasures/StructureDefinition/cqfm-testCaseDescription","valueMarkdown":"Patient with Visual Acuity Exam Performed in Dec 2023"}],"modifierExtension":[{"url":"http://hl7.org/fhir/us/cqfmeasures/StructureDefinition/cqfm-isTestCase","valueBoolean":true}],"status":"complete","type":"individual","measure":"http://ecqi.healthit.gov/ecqms/Measure/Cataracts2040BCVAwithin90DaysFHIR","period":{"start":"2024-01-01","end":"2024-12-31"},"group":[{"population":[{"code":{"coding":[{"system":"http://terminology.hl7.org/CodeSystem/measure-population","code":"initial-population","display":"Initial Population"}]},"count":1},{"code":{"coding":[{"system":"http://terminology.hl7.org/CodeSystem/measure-population","code":"denominator","display":"Denominator"}]},"count":1},{"code":{"coding":[{"system":"http://terminology.hl7.org/CodeSystem/measure-population","code":"denominator-exclusion","display":"Denominator Exclusion"}]},"count":0},{"code":{"coding":[{"system":"http://terminology.hl7.org/CodeSystem/measure-population","code":"numerator","display":"Numerator"}]},"count":0}]}],"evaluatedResource":[{"reference":"https://madie.cms.gov/Patient/4dd85cf1-18a3-44ed-8a72-096694776335"},{"reference":"http://myGoodHealthcare.com/fhir/Observation/5c9a4252b84846291b7a7085"},{"reference":"http://myGoodHealthcare.com/fhir/Procedure/5c9a4252b84846291b7a7084"},{"reference":"http://myGoodHealthcare.com/fhir/Coverage/1"},{"reference":"http://myGoodHealthcare.com/fhir/Organization/123456"},{"reference":"Observation/best-corrected-visual-acuity-observable-entity-3244"},{"reference":"Practitioner/practitioner-123456"}]}}]},"request":{"method":"PUT","url":"Bundle/61095b0998086b53805591a5"}}]}