{"resourceType":"Bundle","id":"tests-ec9adac7-dfe7-4da4-874b-c75835d24f33-bundle","type":"transaction","entry":[{"resource":{"resourceType":"Bundle","id":"617bf9b81289f5673c8ceff7","type":"collection","entry":[{"fullUrl":"https://madie.cms.gov/Patient/ec9adac7-dfe7-4da4-874b-c75835d24f33","resource":{"resourceType":"Patient","id":"ec9adac7-dfe7-4da4-874b-c75835d24f33","meta":{"profile":["http://hl7.org/fhir/us/qicore/StructureDefinition/qicore-patient"]},"extension":[{"url":"http://hl7.org/fhir/us/core/StructureDefinition/us-core-race","extension":[{"url":"ombCategory","valueCoding":{"system":"urn:oid:2.16.840.1.113883.6.238","code":"2028-9","display":"Asian","userSelected":true}},{"url":"text","valueString":"Asian"}]},{"url":"http://hl7.org/fhir/us/core/StructureDefinition/us-core-ethnicity","extension":[{"url":"ombCategory","valueCoding":{"system":"urn:oid:2.16.840.1.113883.6.238","code":"2135-2","display":"Hispanic or Latino","userSelected":true}},{"url":"text","valueString":"Hispanic or Latino"}]}],"identifier":[{"type":{"coding":[{"system":"http://terminology.hl7.org/CodeSystem/v2-0203","code":"MR"}]},"system":"https://bonnie-fhir.healthit.gov/","value":"617bf9b81289f5673c8ceff7"}],"name":[{"family":"DenExcl8Pass","given":["AllergyStartsDuringEndsAfterED"]}],"gender":"male","birthDate":"1984-12-02"}},{"fullUrl":"https://madie.cms.gov/Encounter/emergency-department-visit-62c8","resource":{"resourceType":"Encounter","id":"emergency-department-visit-62c8","meta":{"profile":["http://hl7.org/fhir/us/qicore/StructureDefinition/qicore-encounter"]},"status":"finished","class":{"system":"http://terminology.hl7.org/CodeSystem/v3-ActCode","code":"EMER","display":"emergency","userSelected":true},"type":[{"coding":[{"system":"http://snomed.info/sct","version":"2020-09","code":"4525004","display":"Emergency department patient visit (procedure)","userSelected":true}]}],"subject":{"reference":"Patient/617bf9b81289f5673c8ceff7"},"period":{"start":"2024-10-09T08:05:00.000+00:00","end":"2024-10-10T07:15:00.000+00:00"},"reasonCode":[{"coding":[{"system":"http://snomed.info/sct","version":"2020-09","code":"703211006","display":"Subsequent ST segment elevation myocardial infarction (disorder)","userSelected":true}]}]}},{"fullUrl":"https://madie.cms.gov/AllergyIntolerance/thrombolytic-medications-62c9","resource":{"resourceType":"AllergyIntolerance","id":"thrombolytic-medications-62c9","meta":{"profile":["http://hl7.org/fhir/us/qicore/StructureDefinition/qicore-allergyintolerance"]},"clinicalStatus":{"coding":[{"system":"http://terminology.hl7.org/CodeSystem/allergyintolerance-clinical","code":"active","display":"allergy-active","userSelected":true}]},"code":{"coding":[{"system":"http://www.nlm.nih.gov/research/umls/rxnorm","version":"2021-01","code":"10106","display":"streptokinase","userSelected":true}]},"patient":{"reference":"Patient/617bf9b81289f5673c8ceff7"},"onsetPeriod":{"start":"2020-10-09T13:00:00.000+00:00","end":"2024-12-02T08:15:00.000+00:00"}}},{"fullUrl":"https://madie.cms.gov/MeasureReport/6384fdb64ba3d47c885c02a7/ec9adac7-dfe7-4da4-874b-c75835d24f33","resource":{"resourceType":"MeasureReport","id":"dd43452f-5d00-41bc-98bf-a5f7c330dd8d","meta":{"profile":["http://hl7.org/fhir/us/cqfmeasures/StructureDefinition/test-case-cqfm"]},"contained":[{"resourceType":"Parameters","id":"AllergyStartsDuringEndsAfterED-parameters","parameter":[{"name":"subject","valueString":"ec9adac7-dfe7-4da4-874b-c75835d24f33"}]}],"extension":[{"url":"http://hl7.org/fhir/us/cqfmeasures/StructureDefinition/cqfm-inputParameters","valueReference":{"reference":"#AllergyStartsDuringEndsAfterED-parameters"}},{"url":"http://hl7.org/fhir/us/cqfmeasures/StructureDefinition/cqfm-testCaseDescription","valueMarkdown":"Patient has allergy to medication ingredient starts during and ends after ED"}],"modifierExtension":[{"url":"http://hl7.org/fhir/us/cqfmeasures/StructureDefinition/cqfm-isTestCase","valueBoolean":true}],"status":"complete","type":"individual","measure":"http://ecqi.healthit.gov/ecqms/Measure/AppropriateTreatmentforSTEMIFHIR","period":{"start":"2024-01-01","end":"2024-12-31"},"group":[{"population":[{"code":{"coding":[{"system":"http://terminology.hl7.org/CodeSystem/measure-population","code":"initial-population","display":"Initial Population"}]},"count":1},{"code":{"coding":[{"system":"http://terminology.hl7.org/CodeSystem/measure-population","code":"denominator","display":"Denominator"}]},"count":1},{"code":{"coding":[{"system":"http://terminology.hl7.org/CodeSystem/measure-population","code":"denominator-exclusion","display":"Denominator Exclusion"}]},"count":1},{"code":{"coding":[{"system":"http://terminology.hl7.org/CodeSystem/measure-population","code":"numerator","display":"Numerator"}]},"count":0}]}],"evaluatedResource":[{"reference":"https://madie.cms.gov/Patient/ec9adac7-dfe7-4da4-874b-c75835d24f33"},{"reference":"https://madie.cms.gov/Encounter/emergency-department-visit-62c8"},{"reference":"https://madie.cms.gov/AllergyIntolerance/thrombolytic-medications-62c9"}]}}]},"request":{"method":"PUT","url":"Bundle/617bf9b81289f5673c8ceff7"}}]}