{
    "resourceType": "Bundle",
    "id": "tests-denexcep2-pos-EXM145v11QICore4-bundle",
    "type": "transaction",
    "entry": [     
      {
        "resource":{
          "resourceType": "Condition",
          "id": "denexcep2-pos-EXM145v11QICore4-6",
          "meta": {
            "profile": [
              "http://hl7.org/fhir/us/qicore/StructureDefinition/qicore-condition"
            ]
          },
          "clinicalStatus" : {
            "coding" : [
              {
                "system" : "http://terminology.hl7.org/CodeSystem/condition-clinical",
                "code" : "active"
              }
            ]
          },
          "verificationStatus" : {
            "coding" : [
              {
                "system" : "http://terminology.hl7.org/CodeSystem/condition-ver-status",
                "code" : "confirmed"
              }
            ]
          },
          "category" : [
            {
              "coding" : [
                {
                  "system" : "http://terminology.hl7.org/CodeSystem/condition-category",
                  "code" : "problem-list-item",
                  "display" : "Problem List Item"
                }
              ]
            }
          ],
          "code": {
            "coding": [
              {
                "system": "http://hl7.org/fhir/sid/icd-10-cm",
                "code": "I49.9",
                "display": "Cardiac arrhythmia, unspecified"
              }
            ]
          },
          "subject": {
            "reference": "Patient/denexcep2-pos-EXM145v11QICore4"
          },
          "onsetDateTime": "2022-02-02"
        },
        "request":{
          "method":"PUT",
          "url":"Condition/denexcep2-pos-EXM145v11QICore4-6"
        }
      },
      {
        "resource":{
          "resourceType": "MedicationRequest",
          "id": "denexcep2-pos-EXM145v11QICore4-5",
          "meta": {
            "profile": [
              "http://hl7.org/fhir/us/qicore/StructureDefinition/qicore-medicationrequest"
            ]
          },
          "status": "on-hold",
          "intent": "order",
          "medicationCodeableConcept": {
            "coding": [
              {
                "system": "http://www.nlm.nih.gov/research/umls/rxnorm",
                "code": "1999035",
                "display": "24 HR metoprolol succinate 25 MG Extended Release Oral Capsule"
              }
            ]
          },
          "subject": {
            "reference": "Patient/denexcep2-pos-EXM145v11QICore4",
            "display": "Betty Dunn"
          },
          "encounter": {
            "reference": "Encounter/denexcep2-pos-EXM145v11QICore4-2",
            "display": "encounter that leads to this prescription"
          },
          "authoredOn": "2022-03-02T10:15:00.000Z",
          "note": [
            {
              "text": "Patient told to take with food"
            }
          ],
          "dosageInstruction": [
            {
              "sequence": 1,
              "text": "One tablet daily",
              "additionalInstruction": [
                {
                  "coding": [
                    {
                      "system": "http://snomed.info/sct",
                      "code": "424616004",
                      "display": "Without regard to meals"
                    }
                  ]
                }
              ],
              "timing": {
                "repeat": {
                  "boundsPeriod": {
                    "start": "2022-03-03",
                    "end": "2022-06-11"
                  },
                  "frequency": 1,
                  "period": 1,
                  "periodUnit": "d"
                }
              },
              "route": {
                "coding": [
                  {
                    "system": "http://snomed.info/sct",
                    "code": "26643006",
                    "display": "Oral Route"
                  }
                ]
              },
              "method": {
                "coding": [
                  {
                    "system": "http://snomed.info/sct",
                    "code": "421521009",
                    "display": "Swallow - dosing instruction imperative (qualifier value)"
                  }
                ]
              },
              "doseAndRate": [
                {
                  "type": {
                    "coding": [
                      {
                        "system": "http://terminology.hl7.org/CodeSystem/dose-rate-type",
                        "code": "ordered",
                        "display": "Ordered"
                      }
                    ]
                  },
                  "doseQuantity": {
                    "value": 1,
                    "unit": "TAB",
                    "system": "http://terminology.hl7.org/CodeSystem/v3-orderableDrugForm",
                    "code": "TAB"
                  }
                }
              ]
            }
          ],
          "dispenseRequest": {
            "validityPeriod": {
              "start": "2022-03-03",
              "end": "2022-06-11"
            },
            "numberOfRepeatsAllowed": 0,
            "quantity": {
              "value": 100,
              "unit": "TAB",
              "system": "http://terminology.hl7.org/CodeSystem/v3-orderableDrugForm",
              "code": "TAB"
            },
            "expectedSupplyDuration": {
              "value": 100,
              "unit": "days",
              "system": "http://unitsofmeasure.org",
              "code": "d"
            }
          },
          "substitution": {
            "allowedBoolean": true,
            "reason": {
              "coding": [
                {
                  "system": "http://terminology.hl7.org/CodeSystem/v3-ActReason",
                  "code": "FP",
                  "display": "formulary policy"
                }
              ]
            }
          }
        },
        "request":{
          "method":"PUT",
          "url":"MedicationRequest/denexcep2-pos-EXM145v11QICore4-5"
        }
      },
      {
        "resource": {
          "resourceType": "Encounter",
          "id": "denexcep2-pos-EXM145v11QICore4-1",
          "status": "finished",
          "class": {
            "code": "AMB",
            "system": "http://terminology.hl7.org/CodeSystem/v3-ActCode",
            "display": "ambulatory"
          },
          "type": [
            {
              "coding": [
                {
                  "code": "99201",
                  "system": "http://www.ama-assn.org/go/cpt",
                  "display": "Office or other outpatient visit for the evaluation and management of a new patient, which requires these 3 key components: A problem focused history; A problem focused examination; Straightforward medical decision making. Counseling and/or coordination of care with other physicians, other qualified health care professionals, or agencies are provided consistent with the nature of the problem(s) and the patient's and/or family's needs. Usually, the presenting problem(s) are self limited or minor. Typically, 10 minutes are spent face-to-face with the patient and/or family."
                }
              ]
            }
          ],
          "subject": {
            "reference": "Patient/denexcep2-pos-EXM145v11QICore4"
          },
          "period": {
            "start": "2022-01-02T10:00:00.000Z",
            "end": "2022-01-02T10:30:00.000Z"
          }
        },
        "request": {
          "method": "PUT",
          "url": "Encounter/denexcep2-pos-EXM145v11QICore4-1"
        }
      },
      {
        "resource": {
          "resourceType": "Encounter",
          "id": "denexcep2-pos-EXM145v11QICore4-2",
          "meta": {
            "profile": [
              "http://hl7.org/fhir/us/qicore/StructureDefinition/qicore-encounter"
            ]
          },
          "status": "finished",
          "class": {
            "code": "AMB",
            "system": "http://terminology.hl7.org/CodeSystem/v3-ActCode",
            "display": "ambulatory"
          },
          "type": [
            {
              "coding": [
                {
                  "code": "99201",
                  "system": "http://www.ama-assn.org/go/cpt",
                  "display": "Office or other outpatient visit for the evaluation and management of a new patient, which requires these 3 key components: A problem focused history; A problem focused examination; Straightforward medical decision making. Counseling and/or coordination of care with other physicians, other qualified health care professionals, or agencies are provided consistent with the nature of the problem(s) and the patient's and/or family's needs. Usually, the presenting problem(s) are self limited or minor. Typically, 10 minutes are spent face-to-face with the patient and/or family."
                }
              ]
            }
          ],
          "subject": {
            "reference": "Patient/denexcep2-pos-EXM145v11QICore4"
          },
          "period": {
            "start": "2022-03-02T10:00:00.000Z",
            "end": "2022-03-02T10:30:00.000Z"
          }
        },
        "request": {
          "method": "PUT",
          "url": "Encounter/denexcep2-pos-EXM145v11QICore4-2"
        }
      },
      {
        "resource": {
          "resourceType": "Condition",
          "id": "denexcep2-pos-EXM145v11QICore4-5",
          "meta": {
            "profile": [
              "http://hl7.org/fhir/us/qicore/StructureDefinition/qicore-condition"
            ]
          },
          "clinicalStatus" : {
            "coding" : [
              {
                "system" : "http://terminology.hl7.org/CodeSystem/condition-clinical",
                "code" : "active"
              }
            ]
          },
          "verificationStatus" : {
            "coding" : [
              {
                "system" : "http://terminology.hl7.org/CodeSystem/condition-ver-status",
                "code" : "confirmed"
              }
            ]
          },
          "category" : [
            {
              "coding" : [
                {
                  "system" : "http://terminology.hl7.org/CodeSystem/condition-category",
                  "code" : "problem-list-item",
                  "display" : "Problem List Item"
                }
              ]
            }
          ],
          "code": {
            "coding": [
              {
                "system": "http://hl7.org/fhir/sid/icd-10-cm",
                "code": "I21.01",
                "display": "ST elevation (STEMI) myocardial infarction involving left main coronary artery"
              }
            ]
          },
          "subject": {
            "reference": "Patient/denexcep2-pos-EXM145v11QICore4"
          },
          "onsetDateTime": "2021-01-02"
        },
        "request": {
          "method": "PUT",
          "url": "Condition/denexcep2-pos-EXM145v11QICore4-5"
        }
      },
      {
        "resource":{
          "resourceType": "Condition",
          "id": "denexcep2-pos-EXM145v11QICore4-3",
          "meta": {
            "profile": [
              "http://hl7.org/fhir/us/qicore/StructureDefinition/qicore-condition"
            ]
          },
          "clinicalStatus" : {
            "coding" : [
              {
                "system" : "http://terminology.hl7.org/CodeSystem/condition-clinical",
                "code" : "active"
              }
            ]
          },
          "verificationStatus" : {
            "coding" : [
              {
                "system" : "http://terminology.hl7.org/CodeSystem/condition-ver-status",
                "code" : "confirmed"
              }
            ]
          },
          "category" : [
            {
              "coding" : [
                {
                  "system" : "http://terminology.hl7.org/CodeSystem/condition-category",
                  "code" : "encounter-diagnosis",
                  "display" : "Encounter Diagnosis"
                }
              ]
            }
          ],
          "severity" : {
            "coding" : [
              {
                "system" : "http://snomed.info/sct",
                "code" : "24484000",
                "display" : "Severe (severity modifier)"
              }
            ]
          },
          "code": {
            "coding": [
              {
                "system": "http://hl7.org/fhir/sid/icd-10-cm",
                "code": "I25.5",
                "display": "Ischemic cardiomyopathy"
              }
            ]
          },
          "subject": {
            "reference": "Patient/denexcep2-pos-EXM145v11QICore4"
          },
          "onsetDateTime": "2022-01-02"
        },
        "request":{
          "method":"PUT",
          "url":"Condition/denexcep2-pos-EXM145v11QICore4-3"
        }
      },
      {
        "resource": {
          "resourceType": "Patient",
          "id": "denexcep2-pos-EXM145v11QICore4",
          "meta": {
            "profile": [
              "http://hl7.org/fhir/us/qicore/StructureDefinition/qicore-patient"
            ]
          },
          "extension": [
            {
              "url": "http://hl7.org/fhir/us/core/StructureDefinition/us-core-race",
              "extension": [
                {
                  "url": "ombCategory",
                  "valueCoding": {
                    "code": "2028-9",
                    "system": "urn:oid:2.16.840.1.113883.6.238",
                    "display": "Asian"
                  }
                },
                {
                  "url": "text",
                  "valueString": "Asian"
                }
              ]
            },
            {
              "url": "http://hl7.org/fhir/us/core/StructureDefinition/us-core-ethnicity",
              "extension": [
                {
                  "url": "ombCategory",
                  "valueCoding": {
                    "code": "2135-2",
                    "system": "urn:oid:2.16.840.1.113883.6.238",
                    "display": "Hispanic or Latino"
                  }
                },
                {
                  "url": "text",
                  "valueString": "Hispanic or Latino"
                }
              ]
            }
          ],
          "identifier": [
            {
              "use": "usual",
              "type": {
                "coding": [
                  {
                    "code": "MR",
                    "system": "http://terminology.hl7.org/CodeSystem/v2-0203",
                    "display": "Medical Record Number"
                  }
                ]
              },
              "system": "http://hospital.smarthealthit.org",
              "value": "685945948"
            }
          ],
          "name": [
            {
              "family": "Dunn",
              "given": [
                "Betty"
              ]
            }
          ],
          "gender": "female",
          "birthDate": "1978-01-01"
        },
        "request": {
          "method": "PUT",
          "url": "Patient/denexcep2-pos-EXM145v11QICore4"
        }
      }
    ]
  }